"subj_id","block_ix","trial_ix","cue","cue_type","mask_type","pic","up_pic","response","rt","is_correct","cue_L","cue_Q","mask_C"
"MWP201",0,0,"gorilla","valid","nomask","gorilla","right","right",380.708565761,1,-0.5,-0.333,-0.5
"MWP201",0,1,"noise","noise","nomask","lightbulb","left","right",NA,0,0,0.667,-0.5
"MWP201",0,2,"heart","valid","mask","heart","left","left",334.143599612,1,-0.5,-0.333,0.5
"MWP201",0,3,"noise","noise","nomask","camel","left","left",472.052636906,1,0,0.667,-0.5
"MWP201",0,4,"noise","noise","mask","heart","left","right",NA,0,0,0.667,0.5
"MWP201",0,5,"noise","noise","nomask","mouse","left","left",332.018502755,1,0,0.667,-0.5
"MWP201",0,6,"lightbulb","valid","mask","lightbulb","right","right",614.091770636,1,-0.5,-0.333,0.5
"MWP201",0,7,"deer","valid","mask","deer","left","left",351.83259382,1,-0.5,-0.333,0.5
"MWP201",0,8,"pear","valid","nomask","pear","left","right",NA,0,-0.5,-0.333,-0.5
"MWP201",0,9,"noise","noise","mask","chicken","left","left",702.417814318,1,0,0.667,0.5
"MWP201",0,10,"camel","valid","mask","camel","left","left",385.089774616,1,-0.5,-0.333,0.5
"MWP201",0,11,"tiger","valid","nomask","tiger","right","right",566.004533262,1,-0.5,-0.333,-0.5
"MWP201",0,12,"camel","valid","mask","camel","left","left",432.673227566,1,-0.5,-0.333,0.5
"MWP201",0,13,"mouse","valid","mask","mouse","right","right",529.196686111,1,-0.5,-0.333,0.5
"MWP201",0,14,"camel","invalid","mask","piano","left","left",587.678571494,1,0.5,-0.333,0.5
"MWP201",0,15,"lightbulb","valid","nomask","lightbulb","right","right",380.782261782,1,-0.5,-0.333,-0.5
"MWP201",0,16,"noise","noise","mask","deer","right","right",448.641868134,1,0,0.667,0.5
"MWP201",0,17,"chicken","valid","nomask","chicken","left","left",314.389167237,1,-0.5,-0.333,-0.5
"MWP201",0,18,"gorilla","valid","mask","gorilla","right","right",566.174541047,1,-0.5,-0.333,0.5
"MWP201",0,19,"noise","noise","nomask","pear","right","right",617.381186632,1,0,0.667,-0.5
"MWP201",0,20,"camel","valid","nomask","camel","right","right",422.871267103,1,-0.5,-0.333,-0.5
"MWP201",0,21,"chicken","invalid","nomask","gorilla","left","left",509.320596786,1,0.5,-0.333,-0.5
"MWP201",0,22,"noise","noise","nomask","chicken","right","right",456.617805059,1,0,0.667,-0.5
"MWP201",0,23,"camel","valid","nomask","camel","left","left",393.8385449,1,-0.5,-0.333,-0.5
"MWP201",0,24,"deer","valid","nomask","deer","left","left",374.458051549,1,-0.5,-0.333,-0.5
"MWP201",0,25,"noise","noise","mask","piano","left","left",513.555583369,1,0,0.667,0.5
"MWP201",0,26,"noise","noise","mask","pear","right","right",517.275867576,1,0,0.667,0.5
"MWP201",0,27,"heart","valid","nomask","heart","right","right",549.782050861,1,-0.5,-0.333,-0.5
"MWP201",0,28,"noise","noise","nomask","deer","left","left",545.274895907,1,0,0.667,-0.5
"MWP201",0,29,"noise","noise","nomask","heart","left","right",NA,0,0,0.667,-0.5
"MWP201",0,30,"noise","noise","mask","lightbulb","left","right",NA,0,0,0.667,0.5
"MWP201",0,31,"noise","noise","mask","tiger","left","left",363.572486647,1,0,0.667,0.5
"MWP201",0,32,"noise","noise","nomask","chicken","left","left",344.036802766,1,0,0.667,-0.5
"MWP201",0,33,"noise","noise","nomask","gorilla","left","left",371.549983247,1,0,0.667,-0.5
"MWP201",0,34,"noise","noise","mask","heart","right","right",607.140949287,1,0,0.667,0.5
"MWP201",0,35,"noise","noise","nomask","gorilla","left","left",314.559564926,1,0,0.667,-0.5
"MWP201",0,36,"noise","noise","mask","piano","left","left",349.879454385,1,0,0.667,0.5
"MWP201",0,37,"noise","noise","mask","gorilla","right","right",521.956929559,1,0,0.667,0.5
"MWP201",0,38,"noise","noise","mask","deer","left","left",388.937174721,1,0,0.667,0.5
"MWP201",0,39,"noise","noise","nomask","lightbulb","right","right",392.502658302,1,0,0.667,-0.5
"MWP201",0,40,"noise","noise","mask","camel","left","left",316.121998505,1,0,0.667,0.5
"MWP201",0,41,"noise","noise","mask","tiger","right","right",431.155245547,1,0,0.667,0.5
"MWP201",0,42,"noise","noise","mask","mouse","right","right",417.420881102,1,0,0.667,0.5
"MWP201",0,43,"heart","valid","nomask","heart","right","right",604.5405326,1,-0.5,-0.333,-0.5
"MWP201",0,44,"lightbulb","valid","nomask","lightbulb","left","left",328.247138241,1,-0.5,-0.333,-0.5
"MWP201",0,45,"mouse","invalid","mask","pear","right","right",574.181671982,1,0.5,-0.333,0.5
"MWP201",0,46,"mouse","valid","nomask","mouse","left","left",434.406058805,1,-0.5,-0.333,-0.5
"MWP201",0,47,"noise","noise","nomask","lightbulb","right","right",918.031700188,1,0,0.667,-0.5
"MWP201",0,48,"camel","valid","nomask","camel","right","right",401.27638384,1,-0.5,-0.333,-0.5
"MWP201",0,49,"noise","noise","nomask","tiger","left","left",412.756585953,1,0,0.667,-0.5
"MWP201",0,50,"noise","noise","mask","camel","right","right",549.113327725,1,0,0.667,0.5
"MWP201",0,51,"gorilla","valid","nomask","gorilla","left","left",428.752521344,1,-0.5,-0.333,-0.5
"MWP201",0,52,"noise","noise","nomask","mouse","left","left",439.539045037,1,0,0.667,-0.5
"MWP201",0,53,"pear","valid","mask","pear","left","right",NA,0,-0.5,-0.333,0.5
"MWP201",0,54,"tiger","valid","nomask","tiger","left","left",307.040231419,1,-0.5,-0.333,-0.5
"MWP201",0,55,"noise","noise","nomask","piano","left","left",445.383646264,1,0,0.667,-0.5
"MWP201",0,56,"chicken","valid","nomask","chicken","left","left",364.644783258,1,-0.5,-0.333,-0.5
"MWP201",0,57,"noise","noise","nomask","gorilla","right","right",431.774837984,1,0,0.667,-0.5
"MWP201",0,58,"piano","valid","nomask","piano","left","left",335.671719717,1,-0.5,-0.333,-0.5
"MWP201",0,59,"tiger","valid","mask","tiger","left","left",453.127577173,1,-0.5,-0.333,0.5
"MWP201",0,60,"noise","noise","mask","gorilla","left","left",312.832972442,1,0,0.667,0.5
"MWP201",0,61,"lightbulb","invalid","nomask","mouse","left","left",323.749341507,1,0.5,-0.333,-0.5
"MWP201",0,62,"noise","noise","nomask","deer","right","right",367.395321431,1,0,0.667,-0.5
"MWP201",0,63,"chicken","valid","nomask","chicken","right","right",430.778576992,1,-0.5,-0.333,-0.5
"MWP201",0,64,"noise","noise","nomask","camel","left","left",466.27354325,1,0,0.667,-0.5
"MWP201",0,65,"deer","valid","nomask","deer","left","left",404.734247859,1,-0.5,-0.333,-0.5
"MWP201",0,66,"piano","invalid","mask","lightbulb","right","right",427.880646748,1,0.5,-0.333,0.5
"MWP201",0,67,"noise","noise","mask","piano","left","left",399.267095054,1,0,0.667,0.5
"MWP201",0,68,"chicken","valid","mask","chicken","left","left",381.64048898,1,-0.5,-0.333,0.5
"MWP201",0,69,"piano","invalid","mask","deer","left","left",534.715309157,1,0.5,-0.333,0.5
"MWP201",0,70,"tiger","invalid","nomask","lightbulb","right","right",478.058277571,1,0.5,-0.333,-0.5
"MWP201",0,71,"heart","valid","mask","heart","left","left",437.668179948,1,-0.5,-0.333,0.5
"MWP201",0,72,"mouse","valid","nomask","mouse","right","right",382.992362516,1,-0.5,-0.333,-0.5
"MWP201",0,73,"noise","noise","nomask","piano","left","left",409.520979767,1,0,0.667,-0.5
"MWP201",0,74,"noise","noise","nomask","tiger","right","right",379.862426285,1,0,0.667,-0.5
"MWP201",0,75,"noise","noise","mask","heart","left","left",575.713301427,1,0,0.667,0.5
"MWP201",0,76,"lightbulb","valid","mask","lightbulb","right","right",438.550972496,1,-0.5,-0.333,0.5
"MWP201",0,77,"gorilla","valid","mask","gorilla","left","left",336.906615441,1,-0.5,-0.333,0.5
"MWP201",0,78,"piano","invalid","mask","camel","right","right",633.234019188,1,0.5,-0.333,0.5
"MWP201",0,79,"gorilla","invalid","nomask","pear","left","left",871.979876712,1,0.5,-0.333,-0.5
"MWP201",0,80,"pear","valid","mask","pear","right","right",585.910646885,1,-0.5,-0.333,0.5
"MWP201",0,81,"noise","noise","mask","deer","left","left",669.540421484,1,0,0.667,0.5
"MWP201",0,82,"gorilla","valid","nomask","gorilla","left","left",449.456033704,1,-0.5,-0.333,-0.5
"MWP201",0,83,"noise","noise","nomask","tiger","left","left",460.088146676,1,0,0.667,-0.5
"MWP201",0,84,"noise","noise","nomask","piano","right","right",479.022954532,1,0,0.667,-0.5
"MWP201",0,85,"noise","noise","mask","camel","left","left",386.066929263,1,0,0.667,0.5
"MWP201",0,86,"noise","noise","nomask","mouse","left","left",365.034709248,1,0,0.667,-0.5
"MWP201",0,87,"noise","noise","nomask","heart","right","right",399.89721551,1,0,0.667,-0.5
"MWP201",0,88,"noise","noise","nomask","pear","left","right",NA,0,0,0.667,-0.5
"MWP201",0,89,"chicken","valid","mask","chicken","left","left",344.902048615,1,-0.5,-0.333,0.5
"MWP201",0,90,"noise","noise","mask","lightbulb","right","right",603.454198688,1,0,0.667,0.5
"MWP201",0,91,"noise","noise","nomask","pear","left","left",470.534264925,1,0,0.667,-0.5
"MWP201",0,92,"piano","valid","nomask","piano","left","left",391.444009147,1,-0.5,-0.333,-0.5
"MWP201",0,93,"noise","noise","mask","heart","left","left",385.285907396,1,0,0.667,0.5
"MWP201",0,94,"noise","noise","mask","chicken","left","left",317.045343312,1,0,0.667,0.5
"MWP201",0,95,"heart","valid","mask","heart","right","right",478.149910195,1,-0.5,-0.333,0.5
"MWP201",0,96,"noise","noise","mask","mouse","left","left",410.569880769,1,0,0.667,0.5
"MWP201",0,97,"noise","noise","nomask","chicken","left","left",366.091018892,1,0,0.667,-0.5
"MWP201",0,98,"deer","valid","mask","deer","left","left",322.960521182,1,-0.5,-0.333,0.5
"MWP201",0,99,"piano","valid","mask","piano","right","right",529.835384921,1,-0.5,-0.333,0.5
"MWP201",0,100,"noise","noise","mask","chicken","left","left",397.161104571,1,0,0.667,0.5
"MWP201",0,101,"tiger","valid","mask","tiger","left","left",364.470876259,1,-0.5,-0.333,0.5
"MWP201",0,102,"noise","noise","mask","pear","right","right",543.375566223,1,0,0.667,0.5
"MWP201",0,103,"mouse","valid","mask","mouse","right","right",538.459378877,1,-0.5,-0.333,0.5
"MWP201",0,104,"pear","valid","mask","pear","right","left",NA,0,-0.5,-0.333,0.5
"MWP201",0,105,"piano","valid","mask","piano","left","left",372.850386571,1,-0.5,-0.333,0.5
"MWP201",0,106,"mouse","invalid","mask","tiger","right","right",669.174280949,1,0.5,-0.333,0.5
"MWP201",1,107,"tiger","valid","mask","tiger","left","left",302.810703783,1,-0.5,-0.333,0.5
"MWP201",1,108,"mouse","invalid","nomask","heart","left","left",536.27228376,1,0.5,-0.333,-0.5
"MWP201",1,109,"noise","noise","nomask","chicken","right","right",393.959811889,1,0,0.667,-0.5
"MWP201",1,110,"gorilla","invalid","mask","heart","right","right",356.654419069,1,0.5,-0.333,0.5
"MWP201",1,111,"deer","valid","mask","deer","right","right",511.975213187,1,-0.5,-0.333,0.5
"MWP201",1,112,"tiger","valid","nomask","tiger","right","right",414.156420389,1,-0.5,-0.333,-0.5
"MWP201",1,113,"pear","invalid","nomask","camel","right","right",427.542970807,1,0.5,-0.333,-0.5
"MWP201",1,114,"noise","noise","nomask","chicken","left","left",511.037051183,1,0,0.667,-0.5
"MWP201",1,115,"mouse","invalid","nomask","gorilla","right","right",424.958151212,1,0.5,-0.333,-0.5
"MWP201",1,116,"camel","valid","nomask","camel","left","left",386.86081866,1,-0.5,-0.333,-0.5
"MWP201",1,117,"gorilla","valid","mask","gorilla","right","right",644.608551316,1,-0.5,-0.333,0.5
"MWP201",1,118,"pear","valid","nomask","pear","right","left",NA,0,-0.5,-0.333,-0.5
"MWP201",1,119,"noise","noise","nomask","heart","right","right",433.171553013,1,0,0.667,-0.5
"MWP201",1,120,"piano","invalid","nomask","deer","left","left",395.021190518,1,0.5,-0.333,-0.5
"MWP201",1,121,"noise","noise","mask","camel","right","right",438.13570129,1,0,0.667,0.5
"MWP201",1,122,"noise","noise","mask","piano","left","left",481.545386021,1,0,0.667,0.5
"MWP201",1,123,"noise","noise","nomask","gorilla","left","left",348.531870026,1,0,0.667,-0.5
"MWP201",1,124,"heart","invalid","mask","tiger","left","left",398.064563167,1,0.5,-0.333,0.5
"MWP201",1,125,"mouse","valid","nomask","mouse","right","right",364.573426748,1,-0.5,-0.333,-0.5
"MWP201",1,126,"noise","noise","mask","gorilla","left","left",375.441445009,1,0,0.667,0.5
"MWP201",1,127,"noise","noise","mask","tiger","left","left",387.123628752,1,0,0.667,0.5
"MWP201",1,128,"noise","noise","mask","gorilla","right","right",430.691623478,1,0,0.667,0.5
"MWP201",1,129,"piano","valid","nomask","piano","right","right",423.3298201,1,-0.5,-0.333,-0.5
"MWP201",1,130,"noise","noise","nomask","tiger","right","right",587.097971642,1,0,0.667,-0.5
"MWP201",1,131,"noise","noise","mask","chicken","right","right",805.786034325,1,0,0.667,0.5
"MWP201",1,132,"pear","invalid","mask","piano","right","right",430.460397358,1,0.5,-0.333,0.5
"MWP201",1,133,"noise","noise","nomask","deer","left","left",425.361334695,1,0,0.667,-0.5
"MWP201",1,134,"piano","valid","mask","piano","right","right",540.273314749,1,-0.5,-0.333,0.5
"MWP201",1,135,"noise","noise","mask","deer","right","right",367.961883952,1,0,0.667,0.5
"MWP201",1,136,"noise","noise","nomask","gorilla","right","right",595.67088529,1,0,0.667,-0.5
"MWP201",1,137,"noise","noise","nomask","mouse","right","right",382.544727443,1,0,0.667,-0.5
"MWP201",1,138,"noise","noise","mask","lightbulb","right","right",698.458505416,1,0,0.667,0.5
"MWP201",1,139,"heart","invalid","nomask","chicken","left","left",363.310456392,1,0.5,-0.333,-0.5
"MWP201",1,140,"noise","noise","nomask","deer","left","left",534.603790293,1,0,0.667,-0.5
"MWP201",1,141,"mouse","valid","mask","mouse","left","left",392.40439696,1,-0.5,-0.333,0.5
"MWP201",1,142,"noise","noise","mask","heart","right","right",524.094114109,1,0,0.667,0.5
"MWP201",1,143,"mouse","valid","mask","mouse","left","left",341.545565403,1,-0.5,-0.333,0.5
"MWP201",1,144,"noise","noise","nomask","tiger","right","right",416.620362957,1,0,0.667,-0.5
"MWP201",1,145,"deer","invalid","mask","chicken","right","right",458.914859249,1,0.5,-0.333,0.5
"MWP201",1,146,"noise","noise","nomask","piano","right","right",627.656517288,1,0,0.667,-0.5
"MWP201",1,147,"noise","noise","nomask","heart","right","right",509.715201915,1,0,0.667,-0.5
"MWP201",1,148,"pear","valid","nomask","pear","left","left",322.105023457,1,-0.5,-0.333,-0.5
"MWP201",1,149,"noise","noise","nomask","deer","left","left",566.31725395,1,0,0.667,-0.5
"MWP201",1,150,"noise","noise","mask","gorilla","left","left",433.853143739,1,0,0.667,0.5
"MWP201",1,151,"deer","valid","nomask","deer","right","right",548.30813047,1,-0.5,-0.333,-0.5
"MWP201",1,152,"noise","noise","mask","chicken","right","right",584.038222092,1,0,0.667,0.5
"MWP201",1,153,"noise","noise","nomask","mouse","right","right",995.531057793,1,0,0.667,-0.5
"MWP201",1,154,"noise","noise","nomask","pear","right","left",NA,0,0,0.667,-0.5
"MWP201",1,155,"lightbulb","valid","mask","lightbulb","left","left",743.548771366,1,-0.5,-0.333,0.5
"MWP201",1,156,"gorilla","valid","mask","gorilla","right","right",669.287749421,1,-0.5,-0.333,0.5
"MWP201",1,157,"pear","valid","nomask","pear","right","right",583.526639151,1,-0.5,-0.333,-0.5
"MWP201",1,158,"noise","noise","mask","heart","right","right",752.532667015,1,0,0.667,0.5
"MWP201",1,159,"lightbulb","valid","nomask","lightbulb","left","left",495.732844545,1,-0.5,-0.333,-0.5
"MWP201",1,160,"noise","noise","mask","mouse","right","right",450.669483485,1,0,0.667,0.5
"MWP201",1,161,"gorilla","valid","nomask","gorilla","left","left",332.514098758,1,-0.5,-0.333,-0.5
"MWP201",1,162,"heart","valid","mask","heart","left","left",461.829166394,1,-0.5,-0.333,0.5
"MWP201",1,163,"tiger","valid","nomask","tiger","left","left",382.280357589,1,-0.5,-0.333,-0.5
"MWP201",1,164,"noise","noise","nomask","mouse","right","right",506.063154753,1,0,0.667,-0.5
"MWP201",1,165,"noise","noise","nomask","lightbulb","right","right",757.534248172,1,0,0.667,-0.5
"MWP201",1,166,"noise","noise","mask","deer","right","right",481.155849935,1,0,0.667,0.5
"MWP201",1,167,"piano","valid","mask","piano","left","left",491.077517683,1,-0.5,-0.333,0.5
"MWP201",1,168,"noise","noise","mask","mouse","right","right",661.312982294,1,0,0.667,0.5
"MWP201",1,169,"heart","valid","nomask","heart","right","right",463.723427034,1,-0.5,-0.333,-0.5
"MWP201",1,170,"noise","noise","nomask","tiger","left","left",387.366552692,1,0,0.667,-0.5
"MWP201",1,171,"deer","valid","nomask","deer","left","left",309.828592435,1,-0.5,-0.333,-0.5
"MWP201",1,172,"noise","noise","mask","mouse","right","right",544.609682111,1,0,0.667,0.5
"MWP201",1,173,"noise","noise","mask","deer","left","left",323.08997662,1,0,0.667,0.5
"MWP201",1,174,"lightbulb","valid","nomask","lightbulb","right","right",355.180108774,1,-0.5,-0.333,-0.5
"MWP201",1,175,"noise","noise","mask","piano","right","right",550.42425901,1,0,0.667,0.5
"MWP201",1,176,"gorilla","valid","nomask","gorilla","right","right",402.970222523,1,-0.5,-0.333,-0.5
"MWP201",1,177,"chicken","valid","mask","chicken","right","right",725.912417169,1,-0.5,-0.333,0.5
"MWP201",1,178,"noise","noise","nomask","heart","left","left",489.086945337,1,0,0.667,-0.5
"MWP201",1,179,"noise","noise","mask","pear","left","right",NA,0,0,0.667,0.5
"MWP201",1,180,"noise","noise","mask","tiger","left","left",384.818386112,1,0,0.667,0.5
"MWP201",1,181,"noise","noise","nomask","lightbulb","left","left",528.244096815,1,0,0.667,-0.5
"MWP201",1,182,"noise","noise","mask","tiger","right","right",397.363866097,1,0,0.667,0.5
"MWP201",1,183,"pear","invalid","nomask","mouse","right","right",495.285989309,1,0.5,-0.333,-0.5
"MWP201",1,184,"noise","noise","nomask","gorilla","left","left",434.700063051,1,0,0.667,-0.5
"MWP201",1,185,"noise","noise","nomask","camel","left","left",389.756019402,1,0,0.667,-0.5
"MWP201",1,186,"noise","noise","mask","piano","right","right",361.533563468,1,0,0.667,0.5
"MWP201",1,187,"chicken","valid","nomask","chicken","right","right",385.671154305,1,-0.5,-0.333,-0.5
"MWP201",1,188,"noise","noise","mask","pear","left","left",539.234551805,1,0,0.667,0.5
"MWP201",1,189,"mouse","valid","mask","mouse","right","right",503.671348502,1,-0.5,-0.333,0.5
"MWP201",1,190,"noise","noise","nomask","pear","right","right",338.535336457,1,0,0.667,-0.5
"MWP201",1,191,"noise","noise","mask","lightbulb","left","left",461.415844795,1,0,0.667,0.5
"MWP201",1,192,"pear","valid","mask","pear","right","right",529.709828726,1,-0.5,-0.333,0.5
"MWP201",1,193,"noise","noise","nomask","piano","right","right",500.844774739,1,0,0.667,-0.5
"MWP201",1,194,"chicken","valid","nomask","chicken","right","right",443.327176385,1,-0.5,-0.333,-0.5
"MWP201",1,195,"noise","noise","mask","camel","right","right",551.041901839,1,0,0.667,0.5
"MWP201",1,196,"camel","valid","mask","camel","right","right",493.353905826,1,-0.5,-0.333,0.5
"MWP201",1,197,"mouse","valid","nomask","mouse","right","right",567.653920356,1,-0.5,-0.333,-0.5
"MWP201",1,198,"noise","noise","mask","pear","left","left",641.754682729,1,0,0.667,0.5
"MWP201",1,199,"noise","noise","nomask","camel","right","right",380.829832779,1,0,0.667,-0.5
"MWP201",1,200,"heart","valid","nomask","heart","left","left",406.165276392,1,-0.5,-0.333,-0.5
"MWP201",1,201,"tiger","valid","mask","tiger","right","right",404.86994214,1,-0.5,-0.333,0.5
"MWP201",1,202,"camel","valid","nomask","camel","left","left",689.110028936,1,-0.5,-0.333,-0.5
"MWP201",1,203,"noise","noise","mask","lightbulb","left","timeout",NA,NA,0,0.667,0.5
"MWP201",1,204,"camel","valid","mask","camel","right","left",NA,0,-0.5,-0.333,0.5
"MWP201",1,205,"piano","valid","nomask","piano","right","right",382.201982458,1,-0.5,-0.333,-0.5
"MWP201",1,206,"noise","noise","mask","chicken","right","left",NA,0,0,0.667,0.5
"MWP201",1,207,"deer","valid","mask","deer","left","left",478.200600541,1,-0.5,-0.333,0.5
"MWP201",1,208,"gorilla","invalid","nomask","tiger","left","left",380.937842274,1,0.5,-0.333,-0.5
"MWP201",1,209,"deer","invalid","mask","lightbulb","left","right",NA,0,0.5,-0.333,0.5
"MWP201",1,210,"noise","noise","nomask","camel","left","left",485.245394113,1,0,0.667,-0.5
"MWP201",1,211,"chicken","valid","mask","chicken","right","right",412.639218208,1,-0.5,-0.333,0.5
"MWP201",1,212,"lightbulb","valid","mask","lightbulb","left","right",NA,0,-0.5,-0.333,0.5
"MWP201",1,213,"noise","noise","nomask","pear","right","left",NA,0,0,0.667,-0.5
"MWP201",2,214,"deer","valid","mask","deer","right","right",450.858207711,1,-0.5,-0.333,0.5
"MWP201",2,215,"noise","noise","mask","tiger","left","left",389.527912659,1,0,0.667,0.5
"MWP201",2,216,"noise","noise","nomask","camel","right","right",415.848309407,1,0,0.667,-0.5
"MWP201",2,217,"mouse","valid","nomask","mouse","left","left",369.930620451,1,-0.5,-0.333,-0.5
"MWP201",2,218,"camel","valid","nomask","camel","right","right",359.436541301,1,-0.5,-0.333,-0.5
"MWP201",2,219,"deer","invalid","nomask","piano","left","left",576.899456413,1,0.5,-0.333,-0.5
"MWP201",2,220,"noise","noise","mask","tiger","right","right",651.204539987,1,0,0.667,0.5
"MWP201",2,221,"tiger","invalid","nomask","pear","right","right",467.92254044,1,0.5,-0.333,-0.5
"MWP201",2,222,"piano","valid","nomask","piano","right","right",425.830415712,1,-0.5,-0.333,-0.5
"MWP201",2,223,"noise","noise","mask","camel","right","right",503.01237352,1,0,0.667,0.5
"MWP201",2,224,"noise","noise","mask","mouse","left","left",401.031510293,1,0,0.667,0.5
"MWP201",2,225,"piano","invalid","mask","gorilla","right","right",376.915755303,1,0.5,-0.333,0.5
"MWP201",2,226,"tiger","valid","mask","tiger","right","right",781.198078912,1,-0.5,-0.333,0.5
"MWP201",2,227,"noise","noise","mask","deer","left","left",520.669003861,1,0,0.667,0.5
"MWP201",2,228,"piano","invalid","nomask","tiger","right","right",331.232801807,1,0.5,-0.333,-0.5
"MWP201",2,229,"pear","invalid","mask","mouse","right","right",551.019676059,1,0.5,-0.333,0.5
"MWP201",2,230,"noise","noise","nomask","chicken","left","left",450.612944202,1,0,0.667,-0.5
"MWP201",2,231,"noise","noise","nomask","pear","left","left",563.08944631,1,0,0.667,-0.5
"MWP201",2,232,"noise","noise","mask","gorilla","right","right",356.202104915,1,0,0.667,0.5
"MWP201",2,233,"noise","noise","nomask","deer","right","right",375.919494312,1,0,0.667,-0.5
"MWP201",2,234,"chicken","valid","nomask","chicken","left","left",413.796128734,1,-0.5,-0.333,-0.5
"MWP201",2,235,"noise","noise","mask","heart","left","left",584.258530318,1,0,0.667,0.5
"MWP201",2,236,"piano","valid","mask","piano","right","right",371.002917032,1,-0.5,-0.333,0.5
"MWP201",2,237,"camel","valid","mask","camel","right","right",510.32660593,1,-0.5,-0.333,0.5
"MWP201",2,238,"noise","noise","mask","chicken","left","left",440.737287718,1,0,0.667,0.5
"MWP201",2,239,"gorilla","valid","nomask","gorilla","right","right",385.89848121,1,-0.5,-0.333,-0.5
"MWP201",2,240,"noise","noise","nomask","heart","left","left",398.140988691,1,0,0.667,-0.5
"MWP201",2,241,"noise","noise","mask","lightbulb","left","left",448.796668788,1,0,0.667,0.5
"MWP201",2,242,"noise","noise","nomask","chicken","right","right",362.984088279,1,0,0.667,-0.5
"MWP201",2,243,"noise","noise","mask","deer","right","right",349.268440303,1,0,0.667,0.5
"MWP201",2,244,"tiger","valid","nomask","tiger","left","left",308.410041529,1,-0.5,-0.333,-0.5
"MWP201",2,245,"gorilla","valid","mask","gorilla","left","left",469.434673549,1,-0.5,-0.333,0.5
"MWP201",2,246,"chicken","valid","mask","chicken","right","right",397.754571983,1,-0.5,-0.333,0.5
"MWP201",2,247,"noise","noise","mask","mouse","left","left",336.118574924,1,0,0.667,0.5
"MWP201",2,248,"pear","valid","mask","pear","left","right",NA,0,-0.5,-0.333,0.5
"MWP201",2,249,"camel","valid","mask","camel","left","left",319.466783956,1,-0.5,-0.333,0.5
"MWP201",2,250,"noise","noise","mask","lightbulb","right","right",554.152731696,1,0,0.667,0.5
"MWP201",2,251,"noise","noise","nomask","piano","right","right",524.661456468,1,0,0.667,-0.5
"MWP201",2,252,"lightbulb","invalid","mask","chicken","left","left",438.579826994,1,0.5,-0.333,0.5
"MWP201",2,253,"noise","noise","nomask","tiger","right","right",393.834255694,1,0,0.667,-0.5
"MWP201",2,254,"noise","noise","mask","piano","right","right",390.163882024,1,0,0.667,0.5
"MWP201",2,255,"noise","noise","mask","lightbulb","right","right",434.660680505,1,0,0.667,0.5
"MWP201",2,256,"mouse","valid","mask","mouse","left","left",444.917294721,1,-0.5,-0.333,0.5
"MWP201",2,257,"noise","noise","nomask","gorilla","right","right",312.460593093,1,0,0.667,-0.5
"MWP201",2,258,"lightbulb","invalid","nomask","heart","right","left",NA,0,0.5,-0.333,-0.5
"MWP201",2,259,"noise","noise","nomask","piano","left","left",393.656059488,1,0,0.667,-0.5
"MWP201",2,260,"noise","noise","mask","pear","right","right",923.14363044,1,0,0.667,0.5
"MWP201",2,261,"noise","noise","nomask","lightbulb","right","right",423.617585504,1,0,0.667,-0.5
"MWP201",2,262,"piano","valid","mask","piano","left","left",590.554275957,1,-0.5,-0.333,0.5
"MWP201",2,263,"tiger","valid","mask","tiger","right","right",620.839830488,1,-0.5,-0.333,0.5
"MWP201",2,264,"noise","noise","mask","pear","right","right",847.143538413,1,0,0.667,0.5
"MWP201",2,265,"heart","valid","nomask","heart","left","left",440.433145443,1,-0.5,-0.333,-0.5
"MWP201",2,266,"deer","valid","nomask","deer","right","right",388.139776012,1,-0.5,-0.333,-0.5
"MWP201",2,267,"heart","valid","mask","heart","right","right",581.992670166,1,-0.5,-0.333,0.5
"MWP201",2,268,"noise","noise","nomask","camel","right","right",623.564633541,1,0,0.667,-0.5
"MWP201",2,269,"noise","noise","mask","piano","right","right",691.230056749,1,0,0.667,0.5
"MWP201",2,270,"heart","valid","nomask","heart","left","left",388.349166285,1,-0.5,-0.333,-0.5
"MWP201",2,271,"noise","noise","mask","camel","left","left",376.818273799,1,0,0.667,0.5
"MWP201",2,272,"piano","invalid","mask","mouse","left","right",NA,0,0.5,-0.333,0.5
"MWP201",2,273,"pear","valid","mask","pear","left","left",407.393153437,1,-0.5,-0.333,0.5
"MWP201",2,274,"mouse","invalid","mask","gorilla","left","left",442.639346875,1,0.5,-0.333,0.5
"MWP201",2,275,"lightbulb","valid","mask","lightbulb","left","left",335.769201221,1,-0.5,-0.333,0.5
"MWP201",2,276,"heart","invalid","mask","pear","left","left",375.096750387,1,0.5,-0.333,0.5
"MWP201",2,277,"deer","valid","nomask","deer","right","right",363.241439481,1,-0.5,-0.333,-0.5
"MWP201",2,278,"pear","valid","nomask","pear","left","left",614.737098222,1,-0.5,-0.333,-0.5
"MWP201",2,279,"camel","invalid","nomask","chicken","right","right",393.165142654,1,0.5,-0.333,-0.5
"MWP201",2,280,"deer","valid","mask","deer","right","right",329.745234048,1,-0.5,-0.333,0.5
"MWP201",2,281,"lightbulb","valid","mask","lightbulb","right","right",765.383459104,1,-0.5,-0.333,0.5
"MWP201",2,282,"noise","noise","nomask","heart","left","left",569.095086976,1,0,0.667,-0.5
"MWP201",2,283,"noise","noise","nomask","deer","right","right",340.585957456,1,0,0.667,-0.5
"MWP201",2,284,"piano","valid","nomask","piano","left","left",343.870694283,1,-0.5,-0.333,-0.5
"MWP201",2,285,"chicken","valid","mask","chicken","left","left",361.417365522,1,-0.5,-0.333,0.5
"MWP201",2,286,"noise","noise","mask","heart","right","right",652.879272267,1,0,0.667,0.5
"MWP201",2,287,"lightbulb","invalid","mask","deer","right","right",502.746054059,1,0.5,-0.333,0.5
"MWP201",2,288,"noise","noise","nomask","heart","right","right",390.666886582,1,0,0.667,-0.5
"MWP201",2,289,"mouse","valid","nomask","mouse","left","left",578.31917709,1,-0.5,-0.333,-0.5
"MWP201",2,290,"deer","invalid","mask","heart","left","left",498.916980461,1,0.5,-0.333,0.5
"MWP201",2,291,"noise","noise","nomask","deer","right","right",396.394509997,1,0,0.667,-0.5
"MWP201",2,292,"noise","noise","mask","camel","left","left",328.109884285,1,0,0.667,0.5
"MWP201",2,293,"noise","noise","nomask","lightbulb","left","left",433.208206086,1,0,0.667,-0.5
"MWP201",2,294,"heart","valid","mask","heart","right","right",667.901172477,1,-0.5,-0.333,0.5
"MWP201",2,295,"noise","noise","mask","chicken","right","right",423.561436153,1,0,0.667,0.5
"MWP201",2,296,"noise","noise","mask","tiger","right","right",459.037296037,1,0,0.667,0.5
"MWP201",2,297,"mouse","invalid","nomask","camel","left","left",406.775120704,1,0.5,-0.333,-0.5
"MWP201",2,298,"mouse","invalid","nomask","piano","right","right",385.680122621,1,0.5,-0.333,-0.5
"MWP201",2,299,"noise","noise","mask","gorilla","right","right",765.357723983,1,0,0.667,0.5
"MWP201",2,300,"noise","noise","mask","pear","left","left",784.953066555,1,0,0.667,0.5
"MWP201",2,301,"noise","noise","mask","gorilla","left","left",579.784519097,1,0,0.667,0.5
"MWP201",2,302,"noise","noise","nomask","lightbulb","left","left",520.071247302,1,0,0.667,-0.5
"MWP201",2,303,"noise","noise","nomask","piano","left","left",435.587534681,1,0,0.667,-0.5
"MWP201",2,304,"noise","noise","nomask","pear","left","left",448.044891411,1,0,0.667,-0.5
"MWP201",2,305,"tiger","valid","nomask","tiger","right","right",410.921983974,1,-0.5,-0.333,-0.5
"MWP201",2,306,"gorilla","valid","mask","gorilla","left","left",344.420490001,1,-0.5,-0.333,0.5
"MWP201",2,307,"gorilla","invalid","mask","camel","left","left",350.728713267,1,0.5,-0.333,0.5
"MWP201",2,308,"pear","valid","nomask","pear","right","right",377.441765537,1,-0.5,-0.333,-0.5
"MWP201",2,309,"camel","invalid","nomask","deer","right","right",461.31251441,1,0.5,-0.333,-0.5
"MWP201",2,310,"noise","noise","nomask","camel","right","right",472.03664991,1,0,0.667,-0.5
"MWP201",2,311,"tiger","invalid","nomask","lightbulb","left","left",333.121993404,1,0.5,-0.333,-0.5
"MWP201",2,312,"noise","noise","nomask","mouse","right","right",391.414374782,1,0,0.667,-0.5
"MWP201",2,313,"lightbulb","valid","nomask","lightbulb","left","right",NA,0,-0.5,-0.333,-0.5
"MWP201",2,314,"noise","noise","nomask","gorilla","right","right",471.254458331,1,0,0.667,-0.5
"MWP201",2,315,"noise","noise","nomask","mouse","left","left",418.745459814,1,0,0.667,-0.5
"MWP201",2,316,"lightbulb","valid","nomask","lightbulb","right","right",439.260247949,1,-0.5,-0.333,-0.5
"MWP201",2,317,"noise","noise","nomask","tiger","left","left",339.86693382,1,0,0.667,-0.5
"MWP201",2,318,"noise","noise","mask","mouse","left","left",376.224806416,1,0,0.667,0.5
"MWP201",2,319,"noise","noise","nomask","chicken","right","right",513.940830308,1,0,0.667,-0.5
"MWP202",0,0,"noise","noise","mask","lion","right","right",679.765150708,1,0,0.667,0.5
"MWP202",0,1,"noise","noise","mask","alligator","right","right",844.024343067,1,0,0.667,0.5
"MWP202",0,2,"grasshopper","invalid","nomask","tiger","right","right",1044.55169052,1,0.5,-0.333,-0.5
"MWP202",0,3,"tiger","invalid","nomask","snowman","left","left",530.598069949,1,0.5,-0.333,-0.5
"MWP202",0,4,"tiger","valid","nomask","tiger","left","left",515.479187539,1,-0.5,-0.333,-0.5
"MWP202",0,5,"skunk","invalid","mask","alligator","left","left",576.189786399,1,0.5,-0.333,0.5
"MWP202",0,6,"noise","noise","nomask","chair","right","right",563.88220127,1,0,0.667,-0.5
"MWP202",0,7,"noise","noise","mask","snowman","left","left",559.36380921,1,0,0.667,0.5
"MWP202",0,8,"lion","invalid","nomask","grasshopper","left","left",627.50127897,1,0.5,-0.333,-0.5
"MWP202",0,9,"noise","noise","mask","skunk","left","left",650.350678712,1,0,0.667,0.5
"MWP202",0,10,"swan","valid","mask","swan","right","right",481.968054781,1,-0.5,-0.333,0.5
"MWP202",0,11,"noise","noise","nomask","tiger","right","right",647.179993073,1,0,0.667,-0.5
"MWP202",0,12,"noise","noise","mask","snowman","left","left",482.064869604,1,0,0.667,0.5
"MWP202",0,13,"snowman","valid","nomask","snowman","left","left",539.162881789,1,-0.5,-0.333,-0.5
"MWP202",0,14,"bee","valid","mask","bee","right","right",535.021114076,1,-0.5,-0.333,0.5
"MWP202",0,15,"skunk","valid","mask","skunk","right","right",632.025538565,1,-0.5,-0.333,0.5
"MWP202",0,16,"noise","noise","nomask","chair","right","right",491.648070776,1,0,0.667,-0.5
"MWP202",0,17,"noise","noise","nomask","snowman","left","left",479.895704018,1,0,0.667,-0.5
"MWP202",0,18,"bee","valid","nomask","bee","left","left",626.792770403,1,-0.5,-0.333,-0.5
"MWP202",0,19,"noise","noise","mask","grasshopper","left","left",694.112448225,1,0,0.667,0.5
"MWP202",0,20,"noise","noise","mask","bee","left","left",577.768528223,1,0,0.667,0.5
"MWP202",0,21,"lion","valid","mask","lion","left","left",600.468671793,1,-0.5,-0.333,0.5
"MWP202",0,22,"noise","noise","nomask","swan","right","right",530.196875159,1,0,0.667,-0.5
"MWP202",0,23,"noise","noise","nomask","alligator","right","right",875.351274648,1,0,0.667,-0.5
"MWP202",0,24,"noise","noise","nomask","lion","right","right",580.375194142,1,0,0.667,-0.5
"MWP202",0,25,"tree","invalid","mask","alligator","right","right",601.210918801,1,0.5,-0.333,0.5
"MWP202",0,26,"grasshopper","invalid","mask","chair","right","right",433.123140043,1,0.5,-0.333,0.5
"MWP202",0,27,"noise","noise","mask","lion","left","left",429.58573153,1,0,0.667,0.5
"MWP202",0,28,"chair","valid","nomask","chair","left","left",541.652929853,1,-0.5,-0.333,-0.5
"MWP202",0,29,"noise","noise","nomask","grasshopper","right","right",450.382950308,1,0,0.667,-0.5
"MWP202",0,30,"skunk","valid","mask","skunk","left","left",499.484571046,1,-0.5,-0.333,0.5
"MWP202",0,31,"noise","noise","mask","alligator","right","right",422.945481143,1,0,0.667,0.5
"MWP202",0,32,"tiger","valid","mask","tiger","right","right",464.288346848,1,-0.5,-0.333,0.5
"MWP202",0,33,"noise","noise","nomask","bee","left","left",443.977035815,1,0,0.667,-0.5
"MWP202",0,34,"swan","valid","nomask","swan","left","left",563.686371286,1,-0.5,-0.333,-0.5
"MWP202",0,35,"noise","noise","nomask","grasshopper","right","right",527.935295424,1,0,0.667,-0.5
"MWP202",0,36,"noise","noise","nomask","swan","left","left",492.343743972,1,0,0.667,-0.5
"MWP202",0,37,"noise","noise","nomask","tiger","right","right",367.935588787,1,0,0.667,-0.5
"MWP202",0,38,"grasshopper","valid","mask","grasshopper","right","right",407.822198089,1,-0.5,-0.333,0.5
"MWP202",0,39,"noise","noise","mask","tiger","left","left",446.463783359,1,0,0.667,0.5
"MWP202",0,40,"skunk","valid","nomask","skunk","right","right",473.016717064,1,-0.5,-0.333,-0.5
"MWP202",0,41,"noise","noise","mask","tiger","left","left",593.482235039,1,0,0.667,0.5
"MWP202",0,42,"noise","noise","nomask","swan","left","left",452.58805473,1,0,0.667,-0.5
"MWP202",0,43,"noise","noise","mask","tree","left","left",624.074254039,1,0,0.667,0.5
"MWP202",0,44,"alligator","valid","nomask","alligator","left","left",622.188198497,1,-0.5,-0.333,-0.5
"MWP202",0,45,"grasshopper","valid","nomask","grasshopper","left","left",636.896718002,1,-0.5,-0.333,-0.5
"MWP202",0,46,"grasshopper","invalid","mask","tree","right","right",561.16808558,1,0.5,-0.333,0.5
"MWP202",0,47,"grasshopper","valid","mask","grasshopper","left","left",648.904690548,1,-0.5,-0.333,0.5
"MWP202",0,48,"tiger","valid","nomask","tiger","left","left",491.959785199,1,-0.5,-0.333,-0.5
"MWP202",0,49,"noise","noise","nomask","bee","left","left",525.650612166,1,0,0.667,-0.5
"MWP202",0,50,"snowman","valid","nomask","snowman","left","left",416.191913391,1,-0.5,-0.333,-0.5
"MWP202",0,51,"noise","noise","mask","swan","right","right",451.632375043,1,0,0.667,0.5
"MWP202",0,52,"alligator","valid","mask","alligator","right","right",465.668324876,1,-0.5,-0.333,0.5
"MWP202",0,53,"noise","noise","nomask","skunk","left","left",541.480203392,1,0,0.667,-0.5
"MWP202",0,54,"noise","noise","mask","swan","left","left",489.131618669,1,0,0.667,0.5
"MWP202",0,55,"noise","noise","nomask","snowman","left","left",430.790416081,1,0,0.667,-0.5
"MWP202",0,56,"noise","noise","nomask","bee","right","right",407.535420847,1,0,0.667,-0.5
"MWP202",0,57,"noise","noise","mask","alligator","left","left",502.57201062,1,0,0.667,0.5
"MWP202",0,58,"noise","noise","nomask","tree","right","right",408.693531557,1,0,0.667,-0.5
"MWP202",0,59,"swan","valid","nomask","swan","right","right",517.741500749,1,-0.5,-0.333,-0.5
"MWP202",0,60,"noise","noise","mask","chair","right","right",450.218291779,1,0,0.667,0.5
"MWP202",0,61,"noise","noise","mask","tree","right","right",423.305602977,1,0,0.667,0.5
"MWP202",0,62,"grasshopper","valid","nomask","grasshopper","left","left",534.948136221,1,-0.5,-0.333,-0.5
"MWP202",0,63,"tiger","invalid","nomask","bee","right","right",477.169119724,1,0.5,-0.333,-0.5
"MWP202",0,64,"noise","noise","mask","tree","right","right",392.820300302,1,0,0.667,0.5
"MWP202",0,65,"bee","invalid","mask","lion","right","right",461.311290856,1,0.5,-0.333,0.5
"MWP202",0,66,"bee","valid","mask","bee","left","left",449.230707163,1,-0.5,-0.333,0.5
"MWP202",0,67,"alligator","invalid","nomask","lion","right","right",459.911876504,1,0.5,-0.333,-0.5
"MWP202",0,68,"noise","noise","nomask","tree","right","right",405.779918627,1,0,0.667,-0.5
"MWP202",0,69,"noise","noise","mask","swan","right","right",493.451246934,1,0,0.667,0.5
"MWP202",0,70,"tree","invalid","mask","skunk","right","right",456.655010988,1,0.5,-0.333,0.5
"MWP202",0,71,"tiger","valid","mask","tiger","left","left",417.694743577,1,-0.5,-0.333,0.5
"MWP202",0,72,"snowman","valid","mask","snowman","right","right",395.415231091,1,-0.5,-0.333,0.5
"MWP202",0,73,"tree","valid","nomask","tree","right","right",384.628445579,1,-0.5,-0.333,-0.5
"MWP202",0,74,"noise","noise","nomask","lion","right","right",347.437982593,1,0,0.667,-0.5
"MWP202",0,75,"skunk","valid","nomask","skunk","right","right",316.462371498,1,-0.5,-0.333,-0.5
"MWP202",0,76,"noise","noise","nomask","tree","right","right",358.763850643,1,0,0.667,-0.5
"MWP202",0,77,"noise","noise","nomask","lion","right","right",355.129994074,1,0,0.667,-0.5
"MWP202",0,78,"noise","noise","nomask","grasshopper","left","left",390.906373825,1,0,0.667,-0.5
"MWP202",0,79,"snowman","invalid","mask","tiger","right","right",384.616343741,1,0.5,-0.333,0.5
"MWP202",0,80,"noise","noise","nomask","snowman","right","right",348.334253184,1,0,0.667,-0.5
"MWP202",0,81,"chair","valid","nomask","chair","right","right",247.036971152,1,-0.5,-0.333,-0.5
"MWP202",0,82,"bee","invalid","mask","swan","left","right",NA,0,0.5,-0.333,0.5
"MWP202",0,83,"chair","valid","mask","chair","left","left",490.191080957,1,-0.5,-0.333,0.5
"MWP202",0,84,"alligator","valid","mask","alligator","right","right",380.154060258,1,-0.5,-0.333,0.5
"MWP202",0,85,"noise","noise","mask","chair","right","right",539.363112446,1,0,0.667,0.5
"MWP202",0,86,"noise","noise","nomask","snowman","left","left",397.620335512,1,0,0.667,-0.5
"MWP202",0,87,"noise","noise","mask","skunk","right","right",375.954717048,1,0,0.667,0.5
"MWP202",0,88,"noise","noise","mask","chair","right","right",371.958905045,1,0,0.667,0.5
"MWP202",0,89,"noise","noise","mask","bee","right","right",367.363134457,1,0,0.667,0.5
"MWP202",0,90,"tree","valid","mask","tree","left","left",518.033412111,1,-0.5,-0.333,0.5
"MWP202",0,91,"skunk","invalid","mask","bee","left","left",522.903124656,1,0.5,-0.333,0.5
"MWP202",0,92,"noise","noise","nomask","skunk","right","right",551.35128196,1,0,0.667,-0.5
"MWP202",0,93,"chair","valid","mask","chair","right","right",380.725047697,1,-0.5,-0.333,0.5
"MWP202",0,94,"noise","noise","mask","grasshopper","right","right",447.814790299,1,0,0.667,0.5
"MWP202",0,95,"lion","valid","nomask","lion","left","left",656.696817401,1,-0.5,-0.333,-0.5
"MWP202",0,96,"snowman","valid","mask","snowman","right","right",385.794990929,1,-0.5,-0.333,0.5
"MWP202",0,97,"lion","valid","nomask","lion","right","right",365.708114288,1,-0.5,-0.333,-0.5
"MWP202",0,98,"noise","noise","mask","skunk","right","right",381.941834115,1,0,0.667,0.5
"MWP202",0,99,"grasshopper","valid","nomask","grasshopper","left","left",428.84055074,1,-0.5,-0.333,-0.5
"MWP202",0,100,"noise","noise","nomask","alligator","left","left",470.941065811,1,0,0.667,-0.5
"MWP202",0,101,"tree","valid","mask","tree","left","left",399.650513136,1,-0.5,-0.333,0.5
"MWP202",0,102,"noise","noise","nomask","skunk","left","left",603.100274864,1,0,0.667,-0.5
"MWP202",0,103,"tree","valid","nomask","tree","left","left",559.623815701,1,-0.5,-0.333,-0.5
"MWP202",0,104,"noise","noise","nomask","alligator","right","right",459.305316937,1,0,0.667,-0.5
"MWP202",0,105,"noise","noise","mask","grasshopper","right","right",379.832811072,1,0,0.667,0.5
"MWP202",0,106,"tree","valid","nomask","tree","left","left",367.324995284,1,-0.5,-0.333,-0.5
"MWP202",1,107,"noise","noise","nomask","bee","right","right",492.883559986,1,0,0.667,-0.5
"MWP202",1,108,"chair","valid","mask","chair","right","right",391.713164077,1,-0.5,-0.333,0.5
"MWP202",1,109,"noise","noise","nomask","tree","left","left",451.583967631,1,0,0.667,-0.5
"MWP202",1,110,"noise","noise","nomask","lion","left","left",389.658782748,1,0,0.667,-0.5
"MWP202",1,111,"noise","noise","nomask","snowman","left","left",432.686373126,1,0,0.667,-0.5
"MWP202",1,112,"noise","noise","mask","swan","right","right",435.68506575,1,0,0.667,0.5
"MWP202",1,113,"bee","valid","nomask","bee","left","left",376.342709846,1,-0.5,-0.333,-0.5
"MWP202",1,114,"lion","invalid","mask","tree","left","left",360.062782973,1,0.5,-0.333,0.5
"MWP202",1,115,"bee","valid","nomask","bee","right","right",332.944729365,1,-0.5,-0.333,-0.5
"MWP202",1,116,"noise","noise","nomask","chair","left","left",390.243705653,1,0,0.667,-0.5
"MWP202",1,117,"snowman","valid","nomask","snowman","right","right",326.508010126,1,-0.5,-0.333,-0.5
"MWP202",1,118,"noise","noise","mask","chair","left","left",393.982444977,1,0,0.667,0.5
"MWP202",1,119,"tree","valid","mask","tree","right","right",256.930419855,1,-0.5,-0.333,0.5
"MWP202",1,120,"swan","valid","mask","swan","right","right",313.411970914,1,-0.5,-0.333,0.5
"MWP202",1,121,"noise","noise","mask","grasshopper","right","left",NA,0,0,0.667,0.5
"MWP202",1,122,"noise","noise","mask","bee","left","left",467.635426146,1,0,0.667,0.5
"MWP202",1,123,"noise","noise","mask","lion","left","left",511.454404419,1,0,0.667,0.5
"MWP202",1,124,"noise","noise","nomask","grasshopper","left","left",583.625091909,1,0,0.667,-0.5
"MWP202",1,125,"lion","valid","mask","lion","left","left",376.689262921,1,-0.5,-0.333,0.5
"MWP202",1,126,"bee","valid","mask","bee","left","left",342.816908116,1,-0.5,-0.333,0.5
"MWP202",1,127,"swan","valid","mask","swan","left","left",384.009784146,1,-0.5,-0.333,0.5
"MWP202",1,128,"noise","noise","mask","chair","left","left",418.908229447,1,0,0.667,0.5
"MWP202",1,129,"swan","invalid","nomask","snowman","right","right",426.756464847,1,0.5,-0.333,-0.5
"MWP202",1,130,"grasshopper","valid","nomask","grasshopper","right","right",448.700425943,1,-0.5,-0.333,-0.5
"MWP202",1,131,"noise","noise","mask","skunk","right","right",562.402474636,1,0,0.667,0.5
"MWP202",1,132,"tiger","invalid","nomask","skunk","left","left",697.077769088,1,0.5,-0.333,-0.5
"MWP202",1,133,"noise","noise","mask","snowman","right","right",421.983567125,1,0,0.667,0.5
"MWP202",1,134,"swan","invalid","mask","chair","left","left",378.291108267,1,0.5,-0.333,0.5
"MWP202",1,135,"bee","invalid","nomask","tiger","left","left",626.809272944,1,0.5,-0.333,-0.5
"MWP202",1,136,"noise","noise","nomask","swan","left","left",454.638402123,1,0,0.667,-0.5
"MWP202",1,137,"tiger","valid","mask","tiger","left","left",425.852493092,1,-0.5,-0.333,0.5
"MWP202",1,138,"noise","noise","mask","grasshopper","left","left",439.661808196,1,0,0.667,0.5
"MWP202",1,139,"noise","noise","nomask","alligator","right","right",587.156632828,1,0,0.667,-0.5
"MWP202",1,140,"lion","valid","nomask","lion","right","right",430.253900558,1,-0.5,-0.333,-0.5
"MWP202",1,141,"noise","noise","mask","grasshopper","left","left",536.559883069,1,0,0.667,0.5
"MWP202",1,142,"noise","noise","nomask","swan","right","right",484.432432248,1,0,0.667,-0.5
"MWP202",1,143,"noise","noise","mask","skunk","left","left",477.936303912,1,0,0.667,0.5
"MWP202",1,144,"noise","noise","nomask","lion","left","left",423.026160162,1,0,0.667,-0.5
"MWP202",1,145,"alligator","valid","mask","alligator","left","left",634.794662707,1,-0.5,-0.333,0.5
"MWP202",1,146,"skunk","valid","nomask","skunk","left","left",711.761718179,1,-0.5,-0.333,-0.5
"MWP202",1,147,"bee","valid","mask","bee","right","right",512.430253904,1,-0.5,-0.333,0.5
"MWP202",1,148,"tree","valid","mask","tree","right","left",NA,0,-0.5,-0.333,0.5
"MWP202",1,149,"noise","noise","nomask","swan","left","left",475.051662099,1,0,0.667,-0.5
"MWP202",1,150,"grasshopper","valid","mask","grasshopper","right","right",455.147413391,1,-0.5,-0.333,0.5
"MWP202",1,151,"tiger","valid","mask","tiger","right","right",414.53395944,1,-0.5,-0.333,0.5
"MWP202",1,152,"tree","valid","nomask","tree","left","left",456.306624314,1,-0.5,-0.333,-0.5
"MWP202",1,153,"skunk","valid","nomask","skunk","left","right",NA,0,-0.5,-0.333,-0.5
"MWP202",1,154,"noise","noise","nomask","tiger","left","left",450.552009541,1,0,0.667,-0.5
"MWP202",1,155,"swan","valid","mask","swan","left","left",958.478907036,1,-0.5,-0.333,0.5
"MWP202",1,156,"snowman","valid","nomask","snowman","left","left",495.948629483,1,-0.5,-0.333,-0.5
"MWP202",1,157,"alligator","valid","nomask","alligator","left","left",462.010264571,1,-0.5,-0.333,-0.5
"MWP202",1,158,"snowman","valid","nomask","snowman","right","right",399.71872358,1,-0.5,-0.333,-0.5
"MWP202",1,159,"noise","noise","nomask","lion","right","right",753.832895396,1,0,0.667,-0.5
"MWP202",1,160,"alligator","invalid","nomask","skunk","right","right",543.292180897,1,0.5,-0.333,-0.5
"MWP202",1,161,"bee","valid","nomask","bee","left","left",633.442922321,1,-0.5,-0.333,-0.5
"MWP202",1,162,"skunk","valid","mask","skunk","right","right",460.281899839,1,-0.5,-0.333,0.5
"MWP202",1,163,"chair","valid","mask","chair","right","right",485.380044032,1,-0.5,-0.333,0.5
"MWP202",1,164,"noise","noise","nomask","bee","left","left",591.868287825,1,0,0.667,-0.5
"MWP202",1,165,"noise","noise","mask","tree","right","right",506.735414965,1,0,0.667,0.5
"MWP202",1,166,"noise","noise","mask","swan","left","left",469.906907412,1,0,0.667,0.5
"MWP202",1,167,"noise","noise","mask","tree","left","left",520.750828349,1,0,0.667,0.5
"MWP202",1,168,"noise","noise","nomask","tiger","right","right",539.237693243,1,0,0.667,-0.5
"MWP202",1,169,"chair","valid","nomask","chair","left","left",494.922538986,1,-0.5,-0.333,-0.5
"MWP202",1,170,"noise","noise","nomask","tree","right","right",473.833775555,1,0,0.667,-0.5
"MWP202",1,171,"lion","invalid","mask","grasshopper","right","right",547.113432869,1,0.5,-0.333,0.5
"MWP202",1,172,"noise","noise","nomask","skunk","right","right",525.613939884,1,0,0.667,-0.5
"MWP202",1,173,"grasshopper","valid","nomask","grasshopper","right","right",467.726373405,1,-0.5,-0.333,-0.5
"MWP202",1,174,"noise","noise","nomask","alligator","right","right",485.812776984,1,0,0.667,-0.5
"MWP202",1,175,"noise","noise","nomask","chair","left","left",489.061941305,1,0,0.667,-0.5
"MWP202",1,176,"noise","noise","mask","alligator","left","left",586.678426247,1,0,0.667,0.5
"MWP202",1,177,"skunk","valid","mask","skunk","left","left",474.498644035,1,-0.5,-0.333,0.5
"MWP202",1,178,"noise","noise","nomask","grasshopper","right","right",540.536625515,1,0,0.667,-0.5
"MWP202",1,179,"swan","valid","nomask","swan","left","left",498.900748295,1,-0.5,-0.333,-0.5
"MWP202",1,180,"snowman","invalid","nomask","tree","right","right",520.947025041,1,0.5,-0.333,-0.5
"MWP202",1,181,"tiger","valid","nomask","tiger","right","right",409.027616057,1,-0.5,-0.333,-0.5
"MWP202",1,182,"noise","noise","nomask","bee","left","left",499.751911993,1,0,0.667,-0.5
"MWP202",1,183,"lion","valid","nomask","lion","left","left",501.789424074,1,-0.5,-0.333,-0.5
"MWP202",1,184,"snowman","invalid","nomask","bee","left","left",606.110702618,1,0.5,-0.333,-0.5
"MWP202",1,185,"noise","noise","nomask","snowman","right","right",407.211971295,1,0,0.667,-0.5
"MWP202",1,186,"alligator","invalid","nomask","chair","right","right",414.513422962,1,0.5,-0.333,-0.5
"MWP202",1,187,"noise","noise","mask","tiger","right","right",400.258539594,1,0,0.667,0.5
"MWP202",1,188,"chair","invalid","mask","swan","right","right",534.50183454,1,0.5,-0.333,0.5
"MWP202",1,189,"noise","noise","nomask","skunk","left","left",426.012750977,1,0,0.667,-0.5
"MWP202",1,190,"lion","valid","mask","lion","right","right",411.619613064,1,-0.5,-0.333,0.5
"MWP202",1,191,"noise","noise","mask","alligator","left","left",466.977892094,1,0,0.667,0.5
"MWP202",1,192,"noise","noise","nomask","chair","left","left",430.065771739,1,0,0.667,-0.5
"MWP202",1,193,"alligator","valid","nomask","alligator","right","right",375.762187585,1,-0.5,-0.333,-0.5
"MWP202",1,194,"noise","noise","mask","snowman","left","left",602.86593897,1,0,0.667,0.5
"MWP202",1,195,"grasshopper","valid","mask","grasshopper","left","right",NA,0,-0.5,-0.333,0.5
"MWP202",1,196,"tiger","valid","nomask","tiger","left","left",438.405049063,1,-0.5,-0.333,-0.5
"MWP202",1,197,"skunk","invalid","nomask","alligator","left","right",NA,0,0.5,-0.333,-0.5
"MWP202",1,198,"noise","noise","mask","tiger","left","left",555.219474452,1,0,0.667,0.5
"MWP202",1,199,"lion","valid","nomask","lion","right","right",453.520997631,1,-0.5,-0.333,-0.5
"MWP202",1,200,"snowman","valid","mask","snowman","left","left",441.34103207,1,-0.5,-0.333,0.5
"MWP202",1,201,"noise","noise","mask","tiger","left","left",458.482024143,1,0,0.667,0.5
"MWP202",1,202,"tiger","invalid","nomask","swan","left","left",532.740098046,1,0.5,-0.333,-0.5
"MWP202",1,203,"tree","invalid","nomask","lion","left","left",610.841427202,1,0.5,-0.333,-0.5
"MWP202",1,204,"noise","noise","mask","snowman","right","right",541.817588382,1,0,0.667,0.5
"MWP202",1,205,"alligator","valid","mask","alligator","right","right",492.831852054,1,-0.5,-0.333,0.5
"MWP202",1,206,"noise","noise","mask","lion","left","left",526.767649892,1,0,0.667,0.5
"MWP202",1,207,"noise","noise","mask","alligator","left","left",673.65884874,1,0,0.667,0.5
"MWP202",1,208,"noise","noise","mask","bee","right","right",482.885228586,1,0,0.667,0.5
"MWP202",1,209,"snowman","valid","mask","snowman","right","right",481.438507006,1,-0.5,-0.333,0.5
"MWP202",1,210,"chair","valid","nomask","chair","left","left",638.92616221,1,-0.5,-0.333,-0.5
"MWP202",1,211,"noise","noise","nomask","tiger","left","left",505.918356474,1,0,0.667,-0.5
"MWP202",1,212,"noise","noise","mask","tree","left","left",437.593858136,1,0,0.667,0.5
"MWP202",2,213,"tree","valid","mask","tree","left","left",466.197505913,1,-0.5,-0.333,0.5
"MWP202",2,214,"tiger","invalid","nomask","grasshopper","right","right",469.869134948,1,0.5,-0.333,-0.5
"MWP202",2,215,"skunk","valid","mask","skunk","right","right",495.688622992,1,-0.5,-0.333,0.5
"MWP202",2,216,"noise","noise","mask","lion","right","right",473.780967441,1,0,0.667,0.5
"MWP202",2,217,"noise","noise","mask","swan","left","left",388.899666461,1,0,0.667,0.5
"MWP202",2,218,"noise","noise","nomask","grasshopper","right","right",447.509310179,1,0,0.667,-0.5
"MWP202",2,219,"bee","valid","mask","bee","right","right",443.161810952,1,-0.5,-0.333,0.5
"MWP202",2,220,"noise","noise","mask","tiger","right","right",461.517389107,1,0,0.667,0.5
"MWP202",2,221,"noise","noise","nomask","alligator","left","left",431.024751975,1,0,0.667,-0.5
"MWP202",2,222,"noise","noise","mask","bee","left","left",461.902448063,1,0,0.667,0.5
"MWP202",2,223,"noise","noise","nomask","chair","right","right",420.605789463,1,0,0.667,-0.5
"MWP202",2,224,"noise","noise","nomask","grasshopper","left","left",416.309998167,1,0,0.667,-0.5
"MWP202",2,225,"tree","valid","mask","tree","right","right",461.186605069,1,-0.5,-0.333,0.5
"MWP202",2,226,"swan","valid","nomask","swan","right","right",438.082699664,1,-0.5,-0.333,-0.5
"MWP202",2,227,"noise","noise","nomask","snowman","right","right",442.57468768,1,0,0.667,-0.5
"MWP202",2,228,"noise","noise","mask","chair","left","left",429.671911406,1,0,0.667,0.5
"MWP202",2,229,"tree","valid","nomask","tree","right","right",476.78186043,1,-0.5,-0.333,-0.5
"MWP202",2,230,"noise","noise","mask","swan","left","left",520.439480664,1,0,0.667,0.5
"MWP202",2,231,"noise","noise","mask","chair","left","left",423.550207081,1,0,0.667,0.5
"MWP202",2,232,"lion","valid","nomask","lion","left","left",407.012107375,1,-0.5,-0.333,-0.5
"MWP202",2,233,"noise","noise","nomask","chair","right","right",461.23501251,1,0,0.667,-0.5
"MWP202",2,234,"noise","noise","mask","skunk","left","left",583.718606242,1,0,0.667,0.5
"MWP202",2,235,"snowman","invalid","nomask","swan","right","right",640.603919193,1,0.5,-0.333,-0.5
"MWP202",2,236,"alligator","invalid","mask","lion","left","left",439.820599189,1,0.5,-0.333,0.5
"MWP202",2,237,"noise","noise","nomask","tiger","right","right",483.587136114,1,0,0.667,-0.5
"MWP202",2,238,"tree","valid","nomask","tree","right","right",435.994946543,1,-0.5,-0.333,-0.5
"MWP202",2,239,"noise","noise","nomask","alligator","left","left",864.822661999,1,0,0.667,-0.5
"MWP202",2,240,"noise","noise","mask","skunk","right","right",500.135137379,1,0,0.667,0.5
"MWP202",2,241,"noise","noise","nomask","snowman","right","right",459.879971604,1,0,0.667,-0.5
"MWP202",2,242,"noise","noise","mask","alligator","right","right",532.923826162,1,0,0.667,0.5
"MWP202",2,243,"tiger","valid","nomask","tiger","right","right",389.239985263,1,-0.5,-0.333,-0.5
"MWP202",2,244,"noise","noise","mask","snowman","right","right",472.163719736,1,0,0.667,0.5
"MWP202",2,245,"bee","valid","mask","bee","left","left",447.074010182,1,-0.5,-0.333,0.5
"MWP202",2,246,"noise","noise","mask","alligator","right","right",426.53093033,1,0,0.667,0.5
"MWP202",2,247,"skunk","valid","nomask","skunk","right","right",506.370892457,1,-0.5,-0.333,-0.5
"MWP202",2,248,"noise","noise","mask","chair","right","right",470.094669494,1,0,0.667,0.5
"MWP202",2,249,"swan","valid","nomask","swan","left","left",526.742712769,1,-0.5,-0.333,-0.5
"MWP202",2,250,"skunk","invalid","mask","grasshopper","left","left",666.106191929,1,0.5,-0.333,0.5
"MWP202",2,251,"chair","invalid","mask","skunk","left","left",600.347286527,1,0.5,-0.333,0.5
"MWP202",2,252,"alligator","valid","mask","alligator","left","left",638.99840659,1,-0.5,-0.333,0.5
"MWP202",2,253,"chair","invalid","mask","tiger","left","left",537.835345109,1,0.5,-0.333,0.5
"MWP202",2,254,"alligator","valid","mask","alligator","left","left",697.840552573,1,-0.5,-0.333,0.5
"MWP202",2,255,"snowman","valid","mask","snowman","left","left",551.153985085,1,-0.5,-0.333,0.5
"MWP202",2,256,"noise","noise","nomask","tiger","left","left",818.447625556,1,0,0.667,-0.5
"MWP202",2,257,"noise","noise","nomask","tree","left","left",461.781062797,1,0,0.667,-0.5
"MWP202",2,258,"noise","noise","mask","bee","left","left",441.436746711,1,0,0.667,0.5
"MWP202",2,259,"snowman","invalid","nomask","alligator","right","right",812.303184444,1,0.5,-0.333,-0.5
"MWP202",2,260,"noise","noise","mask","skunk","left","left",447.131218942,1,0,0.667,0.5
"MWP202",2,261,"swan","valid","mask","swan","right","right",465.099904482,1,-0.5,-0.333,0.5
"MWP202",2,262,"noise","noise","nomask","bee","right","right",468.186610582,1,0,0.667,-0.5
"MWP202",2,263,"snowman","valid","nomask","snowman","right","right",464.997222094,1,-0.5,-0.333,-0.5
"MWP202",2,264,"swan","valid","nomask","swan","right","right",433.173381054,1,-0.5,-0.333,-0.5
"MWP202",2,265,"noise","noise","nomask","alligator","left","left",582.058451953,1,0,0.667,-0.5
"MWP202",2,266,"noise","noise","mask","swan","right","right",463.755131816,1,0,0.667,0.5
"MWP202",2,267,"lion","valid","mask","lion","right","right",470.865887619,1,-0.5,-0.333,0.5
"MWP202",2,268,"noise","noise","nomask","tree","left","left",610.370555078,1,0,0.667,-0.5
"MWP202",2,269,"alligator","valid","nomask","alligator","right","right",602.776825312,1,-0.5,-0.333,-0.5
"MWP202",2,270,"chair","valid","mask","chair","left","left",489.133452269,1,-0.5,-0.333,0.5
"MWP202",2,271,"noise","noise","nomask","skunk","right","right",796.057362779,1,0,0.667,-0.5
"MWP202",2,272,"tiger","valid","mask","tiger","left","left",498.125496204,1,-0.5,-0.333,0.5
"MWP202",2,273,"lion","invalid","mask","snowman","left","left",472.242198448,1,0.5,-0.333,0.5
"MWP202",2,274,"lion","invalid","nomask","chair","left","left",461.355297593,1,0.5,-0.333,-0.5
"MWP202",2,275,"lion","valid","mask","lion","right","right",502.422387683,1,-0.5,-0.333,0.5
"MWP202",2,276,"bee","valid","nomask","bee","right","right",405.354520131,1,-0.5,-0.333,-0.5
"MWP202",2,277,"noise","noise","mask","grasshopper","right","right",517.152177141,1,0,0.667,0.5
"MWP202",2,278,"lion","invalid","mask","bee","right","right",513.139862596,1,0.5,-0.333,0.5
"MWP202",2,279,"noise","noise","nomask","tree","left","left",518.959754001,1,0,0.667,-0.5
"MWP202",2,280,"noise","noise","mask","lion","right","right",390.017804399,1,0,0.667,0.5
"MWP202",2,281,"noise","noise","mask","snowman","left","left",401.743400347,1,0,0.667,0.5
"MWP202",2,282,"skunk","valid","nomask","skunk","left","left",595.618028805,1,-0.5,-0.333,-0.5
"MWP202",2,283,"tiger","valid","nomask","tiger","right","right",419.365532813,1,-0.5,-0.333,-0.5
"MWP202",2,284,"noise","noise","nomask","chair","left","left",534.868190618,1,0,0.667,-0.5
"MWP202",2,285,"bee","valid","nomask","bee","right","right",450.126611046,1,-0.5,-0.333,-0.5
"MWP202",2,286,"alligator","invalid","nomask","tree","left","left",544.029293844,1,0.5,-0.333,-0.5
"MWP202",2,287,"chair","valid","nomask","chair","right","right",452.150921104,1,-0.5,-0.333,-0.5
"MWP202",2,288,"tiger","valid","mask","tiger","right","right",449.043678527,1,-0.5,-0.333,0.5
"MWP202",2,289,"noise","noise","nomask","skunk","right","right",540.821202449,1,0,0.667,-0.5
"MWP202",2,290,"grasshopper","valid","nomask","grasshopper","right","right",501.780989463,1,-0.5,-0.333,-0.5
"MWP202",2,291,"alligator","valid","nomask","alligator","left","left",683.512691379,1,-0.5,-0.333,-0.5
"MWP202",2,292,"lion","valid","mask","lion","left","left",546.87322941,1,-0.5,-0.333,0.5
"MWP202",2,293,"noise","noise","nomask","tiger","left","left",603.248430882,1,0,0.667,-0.5
"MWP202",2,294,"chair","valid","nomask","chair","right","right",478.9656949,1,-0.5,-0.333,-0.5
"MWP202",2,295,"skunk","valid","mask","skunk","left","left",499.838825315,1,-0.5,-0.333,0.5
"MWP202",2,296,"noise","noise","nomask","grasshopper","left","left",557.500123774,1,0,0.667,-0.5
"MWP202",2,297,"noise","noise","mask","tiger","right","right",423.794811242,1,0,0.667,0.5
"MWP202",2,298,"noise","noise","mask","bee","right","right",499.096578307,1,0,0.667,0.5
"MWP202",2,299,"noise","noise","mask","grasshopper","left","left",566.823685134,1,0,0.667,0.5
"MWP202",2,300,"grasshopper","invalid","mask","snowman","right","right",463.290493994,1,0.5,-0.333,0.5
"MWP202",2,301,"alligator","valid","nomask","alligator","right","right",455.793212343,1,-0.5,-0.333,-0.5
"MWP202",2,302,"noise","noise","nomask","swan","right","right",434.674377611,1,0,0.667,-0.5
"MWP202",2,303,"noise","noise","mask","tree","left","left",524.404121243,1,0,0.667,0.5
"MWP202",2,304,"noise","noise","nomask","lion","left","left",488.26725292,1,0,0.667,-0.5
"MWP202",2,305,"chair","valid","mask","chair","left","left",487.960672646,1,-0.5,-0.333,0.5
"MWP202",2,306,"noise","noise","nomask","skunk","left","left",715.641279065,1,0,0.667,-0.5
"MWP202",2,307,"noise","noise","mask","tree","right","right",523.433772614,1,0,0.667,0.5
"MWP202",2,308,"noise","noise","nomask","lion","left","left",525.782265642,1,0,0.667,-0.5
"MWP202",2,309,"grasshopper","valid","mask","grasshopper","right","right",515.507791919,1,-0.5,-0.333,0.5
"MWP202",2,310,"snowman","valid","mask","snowman","left","left",493.904516392,1,-0.5,-0.333,0.5
"MWP202",2,311,"noise","noise","nomask","swan","right","right",432.026272028,1,0,0.667,-0.5
"MWP202",2,312,"noise","noise","mask","tiger","right","right",369.832279306,1,0,0.667,0.5
"MWP202",2,313,"noise","noise","mask","lion","left","left",468.907220958,1,0,0.667,0.5
"MWP202",2,314,"noise","noise","nomask","bee","right","right",566.793247155,1,0,0.667,-0.5
"MWP202",2,315,"swan","valid","mask","swan","left","left",526.65029862,1,-0.5,-0.333,0.5
"MWP202",2,316,"noise","noise","mask","bee","right","right",641.366335942,1,0,0.667,0.5
"MWP202",2,317,"noise","noise","mask","lion","right","right",436.081493128,1,0,0.667,0.5
"MWP202",2,318,"grasshopper","valid","mask","grasshopper","left","left",603.968674521,1,-0.5,-0.333,0.5
"MWP202",2,319,"noise","noise","mask","snowman","right","right",446.778431564,1,0,0.667,0.5
"MWP203",0,0,"noise","noise","nomask","penguin","right","right",592.129761208,1,0,0.667,-0.5
"MWP203",0,1,"piano","valid","nomask","piano","left","left",538.359392027,1,-0.5,-0.333,-0.5
"MWP203",0,2,"noise","noise","mask","skunk","right","right",990.083447774,1,0,0.667,0.5
"MWP203",0,3,"giraffe","valid","mask","giraffe","left","left",580.730181828,1,-0.5,-0.333,0.5
"MWP203",0,4,"noise","noise","mask","camel","right","right",633.129374328,1,0,0.667,0.5
"MWP203",0,5,"tiger","valid","mask","tiger","right","right",572.744792094,1,-0.5,-0.333,0.5
"MWP203",0,6,"penguin","valid","mask","penguin","right","right",487.019661843,1,-0.5,-0.333,0.5
"MWP203",0,7,"noise","noise","mask","tomato","left","left",554.900792311,1,0,0.667,0.5
"MWP203",0,8,"camel","invalid","nomask","table","right","right",731.130918226,1,0.5,-0.333,-0.5
"MWP203",0,9,"piano","invalid","mask","giraffe","right","right",531.086911476,1,0.5,-0.333,0.5
"MWP203",0,10,"noise","noise","mask","penguin","left","left",711.597426358,1,0,0.667,0.5
"MWP203",0,11,"noise","noise","nomask","giraffe","left","left",561.876227381,1,0,0.667,-0.5
"MWP203",0,12,"raccoon","valid","nomask","raccoon","left","left",532.923459454,1,-0.5,-0.333,-0.5
"MWP203",0,13,"noise","noise","mask","giraffe","right","right",456.466148724,1,0,0.667,0.5
"MWP203",0,14,"noise","noise","nomask","piano","right","right",508.162700251,1,0,0.667,-0.5
"MWP203",0,15,"giraffe","valid","nomask","giraffe","left","left",467.027032981,1,-0.5,-0.333,-0.5
"MWP203",0,16,"noise","noise","mask","camel","left","left",466.28038527,1,0,0.667,0.5
"MWP203",0,17,"noise","noise","nomask","skunk","right","left",NA,0,0,0.667,-0.5
"MWP203",0,18,"noise","noise","mask","piano","left","left",656.126563379,1,0,0.667,0.5
"MWP203",0,19,"tiger","invalid","nomask","skunk","left","left",1381.58757982,1,0.5,-0.333,-0.5
"MWP203",0,20,"rhinoceros","valid","mask","rhinoceros","right","right",642.290844233,1,-0.5,-0.333,0.5
"MWP203",0,21,"noise","noise","mask","tomato","right","right",621.546066803,1,0,0.667,0.5
"MWP203",0,22,"piano","invalid","mask","raccoon","right","right",517.450689542,1,0.5,-0.333,0.5
"MWP203",0,23,"noise","noise","mask","tiger","right","right",511.182662798,1,0,0.667,0.5
"MWP203",0,24,"noise","noise","nomask","tomato","right","right",506.633466051,1,0,0.667,-0.5
"MWP203",0,25,"skunk","valid","nomask","skunk","right","right",582.967557857,1,-0.5,-0.333,-0.5
"MWP203",0,26,"tomato","valid","mask","tomato","left","left",552.602907032,1,-0.5,-0.333,0.5
"MWP203",0,27,"noise","noise","mask","penguin","left","left",560.100922128,1,0,0.667,0.5
"MWP203",0,28,"skunk","valid","nomask","skunk","left","left",700.757832732,1,-0.5,-0.333,-0.5
"MWP203",0,29,"camel","invalid","nomask","tomato","left","left",705.28979355,1,0.5,-0.333,-0.5
"MWP203",0,30,"noise","noise","nomask","giraffe","left","left",556.099242531,1,0,0.667,-0.5
"MWP203",0,31,"tomato","valid","nomask","tomato","right","right",560.069383966,1,-0.5,-0.333,-0.5
"MWP203",0,32,"camel","valid","mask","camel","left","left",448.946496967,1,-0.5,-0.333,0.5
"MWP203",0,33,"noise","noise","nomask","tiger","right","right",515.861312742,1,0,0.667,-0.5
"MWP203",0,34,"noise","noise","nomask","rhinoceros","right","right",469.357189897,1,0,0.667,-0.5
"MWP203",0,35,"table","invalid","nomask","raccoon","right","right",478.247651597,1,0.5,-0.333,-0.5
"MWP203",0,36,"rhinoceros","valid","nomask","rhinoceros","right","right",444.677476422,1,-0.5,-0.333,-0.5
"MWP203",0,37,"noise","noise","mask","table","left","left",588.39322225,1,0,0.667,0.5
"MWP203",0,38,"noise","noise","nomask","piano","left","left",734.514303127,1,0,0.667,-0.5
"MWP203",0,39,"raccoon","valid","nomask","raccoon","right","right",448.416582483,1,-0.5,-0.333,-0.5
"MWP203",0,40,"noise","noise","nomask","table","right","right",418.377948226,1,0,0.667,-0.5
"MWP203",0,41,"noise","noise","mask","raccoon","left","left",470.561140944,1,0,0.667,0.5
"MWP203",0,42,"camel","valid","nomask","camel","left","left",494.651897519,1,-0.5,-0.333,-0.5
"MWP203",0,43,"noise","noise","nomask","table","right","right",466.11425982,1,0,0.667,-0.5
"MWP203",0,44,"giraffe","valid","mask","giraffe","right","right",393.282371078,1,-0.5,-0.333,0.5
"MWP203",0,45,"noise","noise","mask","table","right","right",395.768385177,1,0,0.667,0.5
"MWP203",0,46,"noise","noise","nomask","camel","right","right",510.832809232,1,0,0.667,-0.5
"MWP203",0,47,"rhinoceros","valid","nomask","rhinoceros","left","left",496.540886845,1,-0.5,-0.333,-0.5
"MWP203",0,48,"noise","noise","nomask","tiger","left","left",476.188869594,1,0,0.667,-0.5
"MWP203",0,49,"noise","noise","nomask","giraffe","left","left",503.68648133,1,0,0.667,-0.5
"MWP203",0,50,"noise","noise","mask","skunk","right","right",761.608519708,1,0,0.667,0.5
"MWP203",0,51,"noise","noise","mask","tomato","left","left",604.481719784,1,0,0.667,0.5
"MWP203",0,52,"noise","noise","nomask","raccoon","right","right",504.863294918,1,0,0.667,-0.5
"MWP203",0,53,"tiger","valid","nomask","tiger","right","right",477.634490991,1,-0.5,-0.333,-0.5
"MWP203",0,54,"table","valid","mask","table","left","left",494.919238467,1,-0.5,-0.333,0.5
"MWP203",0,55,"noise","noise","mask","giraffe","left","left",546.036734624,1,0,0.667,0.5
"MWP203",0,56,"penguin","valid","nomask","penguin","right","right",525.118864054,1,-0.5,-0.333,-0.5
"MWP203",0,57,"tomato","invalid","nomask","rhinoceros","right","right",511.434234679,1,0.5,-0.333,-0.5
"MWP203",0,58,"tomato","valid","nomask","tomato","left","left",488.843741245,1,-0.5,-0.333,-0.5
"MWP203",0,59,"noise","noise","nomask","raccoon","right","right",644.190835214,1,0,0.667,-0.5
"MWP203",0,60,"noise","noise","nomask","skunk","left","left",710.361937119,1,0,0.667,-0.5
"MWP203",0,61,"noise","noise","nomask","piano","left","left",674.0145699,1,0,0.667,-0.5
"MWP203",0,62,"camel","valid","nomask","camel","left","left",540.655076999,1,-0.5,-0.333,-0.5
"MWP203",0,63,"noise","noise","mask","rhinoceros","left","left",587.733487861,1,0,0.667,0.5
"MWP203",0,64,"penguin","valid","mask","penguin","left","left",535.51545646,1,-0.5,-0.333,0.5
"MWP203",0,65,"noise","noise","mask","skunk","left","left",684.516411769,1,0,0.667,0.5
"MWP203",0,66,"noise","noise","mask","tiger","left","left",547.333833296,1,0,0.667,0.5
"MWP203",0,67,"noise","noise","mask","camel","left","left",441.686118254,1,0,0.667,0.5
"MWP203",0,68,"piano","valid","mask","piano","right","right",580.70964535,1,-0.5,-0.333,0.5
"MWP203",0,69,"giraffe","invalid","nomask","camel","right","right",448.859216936,1,0.5,-0.333,-0.5
"MWP203",0,70,"noise","noise","nomask","piano","right","right",500.609309995,1,0,0.667,-0.5
"MWP203",0,71,"noise","noise","nomask","penguin","right","right",512.060964014,1,0,0.667,-0.5
"MWP203",0,72,"giraffe","invalid","mask","table","left","left",640.510404861,1,0.5,-0.333,0.5
"MWP203",0,73,"tomato","valid","mask","tomato","right","right",528.195301915,1,-0.5,-0.333,0.5
"MWP203",0,74,"noise","noise","mask","rhinoceros","left","left",670.349541877,1,0,0.667,0.5
"MWP203",0,75,"noise","noise","mask","piano","right","right",481.229474972,1,0,0.667,0.5
"MWP203",0,76,"noise","noise","nomask","table","right","right",500.703557744,1,0,0.667,-0.5
"MWP203",0,77,"penguin","invalid","nomask","tiger","left","left",434.211573389,1,0.5,-0.333,-0.5
"MWP203",0,78,"giraffe","invalid","nomask","piano","right","right",424.841071479,1,0.5,-0.333,-0.5
"MWP203",0,79,"noise","noise","mask","penguin","left","left",482.579015021,1,0,0.667,0.5
"MWP203",0,80,"noise","noise","nomask","rhinoceros","left","left",627.866168157,1,0,0.667,-0.5
"MWP203",0,81,"piano","valid","nomask","piano","left","left",452.957344649,1,-0.5,-0.333,-0.5
"MWP203",0,82,"skunk","valid","nomask","skunk","right","left",NA,0,-0.5,-0.333,-0.5
"MWP203",0,83,"raccoon","valid","mask","raccoon","right","right",456.928586238,1,-0.5,-0.333,0.5
"MWP203",0,84,"piano","valid","mask","piano","left","left",676.030078612,1,-0.5,-0.333,0.5
"MWP203",0,85,"table","valid","nomask","table","left","left",549.337240169,1,-0.5,-0.333,-0.5
"MWP203",0,86,"rhinoceros","valid","mask","rhinoceros","left","left",540.374900738,1,-0.5,-0.333,0.5
"MWP203",0,87,"penguin","valid","nomask","penguin","left","left",560.966021294,1,-0.5,-0.333,-0.5
"MWP203",0,88,"tiger","valid","nomask","tiger","left","left",442.567353224,1,-0.5,-0.333,-0.5
"MWP203",0,89,"noise","noise","mask","raccoon","right","right",565.414736018,1,0,0.667,0.5
"MWP203",0,90,"table","invalid","mask","camel","left","left",731.975114177,1,0.5,-0.333,0.5
"MWP203",0,91,"noise","noise","nomask","raccoon","left","left",479.252105433,1,0,0.667,-0.5
"MWP203",0,92,"table","valid","mask","table","left","left",596.935663983,1,-0.5,-0.333,0.5
"MWP203",0,93,"skunk","invalid","nomask","rhinoceros","left","left",575.431403558,1,0.5,-0.333,-0.5
"MWP203",0,94,"noise","noise","nomask","penguin","right","right",634.712516796,1,0,0.667,-0.5
"MWP203",0,95,"noise","noise","nomask","tomato","left","left",604.827539413,1,0,0.667,-0.5
"MWP203",0,96,"table","valid","mask","table","right","right",462.861428299,1,-0.5,-0.333,0.5
"MWP203",0,97,"noise","noise","nomask","camel","right","right",440.391586657,1,0,0.667,-0.5
"MWP203",0,98,"giraffe","valid","nomask","giraffe","left","left",566.462096438,1,-0.5,-0.333,-0.5
"MWP203",0,99,"camel","valid","mask","camel","left","left",532.435351342,1,-0.5,-0.333,0.5
"MWP203",0,100,"noise","noise","mask","giraffe","right","right",536.435197311,1,0,0.667,0.5
"MWP203",0,101,"noise","noise","mask","tiger","right","right",548.160793289,1,0,0.667,0.5
"MWP203",0,102,"skunk","valid","mask","skunk","left","left",821.637014073,1,-0.5,-0.333,0.5
"MWP203",0,103,"tiger","valid","mask","tiger","left","left",506.042308814,1,-0.5,-0.333,0.5
"MWP203",0,104,"skunk","valid","mask","skunk","right","right",675.267295097,1,-0.5,-0.333,0.5
"MWP203",0,105,"table","invalid","nomask","penguin","left","left",668.309096014,1,0.5,-0.333,-0.5
"MWP203",0,106,"noise","noise","nomask","tiger","right","right",487.954805081,1,0,0.667,-0.5
"MWP203",1,107,"skunk","valid","mask","skunk","right","right",807.736751682,1,-0.5,-0.333,0.5
"MWP203",1,108,"tiger","valid","nomask","tiger","left","left",464.265243296,1,-0.5,-0.333,-0.5
"MWP203",1,109,"noise","noise","nomask","camel","right","right",468.585605006,1,0,0.667,-0.5
"MWP203",1,110,"noise","noise","nomask","penguin","left","left",502.463827375,1,0,0.667,-0.5
"MWP203",1,111,"giraffe","valid","mask","giraffe","right","right",388.492237398,1,-0.5,-0.333,0.5
"MWP203",1,112,"tiger","valid","mask","tiger","right","right",537.662985356,1,-0.5,-0.333,0.5
"MWP203",1,113,"noise","noise","mask","tomato","right","right",620.560315816,1,0,0.667,0.5
"MWP203",1,114,"noise","noise","nomask","penguin","right","right",481.272381556,1,0,0.667,-0.5
"MWP203",1,115,"noise","noise","nomask","rhinoceros","right","right",476.887476601,1,0,0.667,-0.5
"MWP203",1,116,"table","invalid","mask","piano","left","left",542.029920936,1,0.5,-0.333,0.5
"MWP203",1,117,"noise","noise","mask","camel","right","right",512.824480946,1,0,0.667,0.5
"MWP203",1,118,"raccoon","valid","mask","raccoon","left","left",475.393814471,1,-0.5,-0.333,0.5
"MWP203",1,119,"table","invalid","mask","giraffe","left","left",619.855474535,1,0.5,-0.333,0.5
"MWP203",1,120,"penguin","valid","nomask","penguin","left","left",599.331464269,1,-0.5,-0.333,-0.5
"MWP203",1,121,"noise","noise","nomask","tomato","right","right",531.295210036,1,0,0.667,-0.5
"MWP203",1,122,"rhinoceros","valid","mask","rhinoceros","left","left",493.994730205,1,-0.5,-0.333,0.5
"MWP203",1,123,"noise","noise","nomask","skunk","right","right",688.632508885,1,0,0.667,-0.5
"MWP203",1,124,"noise","noise","mask","table","left","left",452.275606862,1,0,0.667,0.5
"MWP203",1,125,"noise","noise","mask","giraffe","left","left",636.902952276,1,0,0.667,0.5
"MWP203",1,126,"piano","valid","nomask","piano","right","right",505.279158591,1,-0.5,-0.333,-0.5
"MWP203",1,127,"noise","noise","nomask","skunk","left","left",637.168826361,1,0,0.667,-0.5
"MWP203",1,128,"giraffe","invalid","nomask","tomato","right","right",647.502342443,1,0.5,-0.333,-0.5
"MWP203",1,129,"penguin","valid","mask","penguin","right","right",458.05625894,1,-0.5,-0.333,0.5
"MWP203",1,130,"noise","noise","mask","giraffe","right","right",462.559982087,1,0,0.667,0.5
"MWP203",1,131,"noise","noise","mask","skunk","left","left",581.933399459,1,0,0.667,0.5
"MWP203",1,132,"tomato","valid","mask","tomato","right","right",403.79558134,1,-0.5,-0.333,0.5
"MWP203",1,133,"raccoon","valid","nomask","raccoon","right","right",448.130905395,1,-0.5,-0.333,-0.5
"MWP203",1,134,"penguin","valid","mask","penguin","left","left",440.799382428,1,-0.5,-0.333,0.5
"MWP203",1,135,"raccoon","valid","mask","raccoon","right","right",505.024652928,1,-0.5,-0.333,0.5
"MWP203",1,136,"tomato","valid","nomask","tomato","left","left",436.796969414,1,-0.5,-0.333,-0.5
"MWP203",1,137,"noise","noise","mask","raccoon","right","right",455.752506095,1,0,0.667,0.5
"MWP203",1,138,"noise","noise","mask","skunk","left","left",815.66896665,1,0,0.667,0.5
"MWP203",1,139,"noise","noise","mask","tiger","right","right",449.037444225,1,0,0.667,0.5
"MWP203",1,140,"giraffe","valid","mask","giraffe","right","right",416.743464535,1,-0.5,-0.333,0.5
"MWP203",1,141,"noise","noise","mask","piano","right","right",564.432285522,1,0,0.667,0.5
"MWP203",1,142,"table","valid","nomask","table","left","left",439.472579223,1,-0.5,-0.333,-0.5
"MWP203",1,143,"noise","noise","nomask","raccoon","left","left",522.346072656,1,0,0.667,-0.5
"MWP203",1,144,"noise","noise","mask","tiger","right","right",418.911896675,1,0,0.667,0.5
"MWP203",1,145,"noise","noise","mask","rhinoceros","right","right",392.164599878,1,0,0.667,0.5
"MWP203",1,146,"noise","noise","nomask","raccoon","left","left",586.964103335,1,0,0.667,-0.5
"MWP203",1,147,"noise","noise","mask","tomato","right","right",383.188691747,1,0,0.667,0.5
"MWP203",1,148,"noise","noise","mask","piano","right","right",561.269667814,1,0,0.667,0.5
"MWP203",1,149,"noise","noise","mask","table","right","right",387.313223473,1,0,0.667,0.5
"MWP203",1,150,"noise","noise","mask","raccoon","left","left",494.999917486,1,0,0.667,0.5
"MWP203",1,151,"camel","valid","mask","camel","right","right",367.309959634,1,-0.5,-0.333,0.5
"MWP203",1,152,"giraffe","valid","mask","giraffe","left","left",448.611679021,1,-0.5,-0.333,0.5
"MWP203",1,153,"rhinoceros","valid","mask","rhinoceros","right","right",433.093068772,1,-0.5,-0.333,0.5
"MWP203",1,154,"skunk","valid","nomask","skunk","left","left",523.54195583,1,-0.5,-0.333,-0.5
"MWP203",1,155,"noise","noise","nomask","piano","left","left",639.32735697,1,0,0.667,-0.5
"MWP203",1,156,"skunk","invalid","mask","penguin","right","right",495.539000054,1,0.5,-0.333,0.5
"MWP203",1,157,"noise","noise","nomask","skunk","left","left",595.408263354,1,0,0.667,-0.5
"MWP203",1,158,"noise","noise","mask","penguin","right","right",379.877551255,1,0,0.667,0.5
"MWP203",1,159,"noise","noise","nomask","raccoon","right","right",477.01179565,1,0,0.667,-0.5
"MWP203",1,160,"raccoon","valid","mask","raccoon","right","right",347.687720845,1,-0.5,-0.333,0.5
"MWP203",1,161,"rhinoceros","valid","nomask","rhinoceros","right","right",413.351645024,1,-0.5,-0.333,-0.5
"MWP203",1,162,"noise","noise","nomask","giraffe","right","right",501.907142112,1,0,0.667,-0.5
"MWP203",1,163,"noise","noise","mask","penguin","right","right",401.572140778,1,0,0.667,0.5
"MWP203",1,164,"noise","noise","mask","camel","left","left",491.213137488,1,0,0.667,0.5
"MWP203",1,165,"noise","noise","nomask","tiger","left","left",414.920118608,1,0,0.667,-0.5
"MWP203",1,166,"noise","noise","nomask","skunk","right","right",729.216991749,1,0,0.667,-0.5
"MWP203",1,167,"table","valid","mask","table","left","left",445.540741988,1,-0.5,-0.333,0.5
"MWP203",1,168,"tomato","valid","nomask","tomato","left","left",1193.21746114,1,-0.5,-0.333,-0.5
"MWP203",1,169,"camel","valid","nomask","camel","left","left",452.203362482,1,-0.5,-0.333,-0.5
"MWP203",1,170,"noise","noise","mask","rhinoceros","right","right",494.481371396,1,0,0.667,0.5
"MWP203",1,171,"camel","invalid","mask","tomato","left","left",681.265047111,1,0.5,-0.333,0.5
"MWP203",1,172,"skunk","valid","mask","skunk","right","right",604.132599634,1,-0.5,-0.333,0.5
"MWP203",1,173,"noise","noise","nomask","piano","right","right",599.482554069,1,0,0.667,-0.5
"MWP203",1,174,"noise","noise","mask","tiger","left","left",471.699081914,1,0,0.667,0.5
"MWP203",1,175,"noise","noise","nomask","penguin","left","left",539.247961482,1,0,0.667,-0.5
"MWP203",1,176,"table","invalid","nomask","piano","left","left",767.085892003,1,0.5,-0.333,-0.5
"MWP203",1,177,"noise","noise","mask","giraffe","left","left",561.960573628,1,0,0.667,0.5
"MWP203",1,178,"tiger","valid","nomask","tiger","left","left",418.422321673,1,-0.5,-0.333,-0.5
"MWP203",1,179,"giraffe","invalid","mask","rhinoceros","left","left",611.760434636,1,0.5,-0.333,0.5
"MWP203",1,180,"noise","noise","nomask","giraffe","right","right",501.573057583,1,0,0.667,-0.5
"MWP203",1,181,"noise","noise","mask","camel","right","right",393.283471261,1,0,0.667,0.5
"MWP203",1,182,"penguin","invalid","nomask","raccoon","left","left",562.821638829,1,0.5,-0.333,-0.5
"MWP203",1,183,"giraffe","valid","nomask","giraffe","right","right",396.078266,1,-0.5,-0.333,-0.5
"MWP203",1,184,"table","valid","nomask","table","left","left",486.86233777,1,-0.5,-0.333,-0.5
"MWP203",1,185,"rhinoceros","valid","nomask","rhinoceros","left","left",437.072744971,1,-0.5,-0.333,-0.5
"MWP203",1,186,"noise","noise","nomask","camel","left","left",462.697136449,1,0,0.667,-0.5
"MWP203",1,187,"tiger","invalid","mask","table","right","right",565.459109494,1,0.5,-0.333,0.5
"MWP203",1,188,"penguin","valid","nomask","penguin","right","right",461.309457227,1,-0.5,-0.333,-0.5
"MWP203",1,189,"camel","valid","mask","camel","right","right",463.806839747,1,-0.5,-0.333,0.5
"MWP203",1,190,"tiger","valid","mask","tiger","left","left",535.02038063,1,-0.5,-0.333,0.5
"MWP203",1,191,"noise","noise","nomask","tomato","right","right",474.19389736,1,0,0.667,-0.5
"MWP203",1,192,"tomato","invalid","mask","raccoon","left","left",465.62908552,1,0.5,-0.333,0.5
"MWP203",1,193,"camel","valid","nomask","camel","right","right",410.726276255,1,-0.5,-0.333,-0.5
"MWP203",1,194,"piano","valid","mask","piano","right","right",418.613384274,1,-0.5,-0.333,0.5
"MWP203",1,195,"table","invalid","mask","tiger","right","right",387.502819183,1,0.5,-0.333,0.5
"MWP203",1,196,"raccoon","invalid","mask","camel","right","right",484.218266094,1,0.5,-0.333,0.5
"MWP203",1,197,"noise","noise","mask","rhinoceros","right","right",607.30365201,1,0,0.667,0.5
"MWP203",1,198,"noise","noise","nomask","table","left","left",577.025914477,1,0,0.667,-0.5
"MWP203",1,199,"noise","noise","nomask","rhinoceros","right","right",476.686512469,1,0,0.667,-0.5
"MWP203",1,200,"noise","noise","mask","table","left","left",415.162155667,1,0,0.667,0.5
"MWP203",1,201,"noise","noise","mask","penguin","left","left",506.852766266,1,0,0.667,0.5
"MWP203",1,202,"noise","noise","nomask","table","left","left",433.522501204,1,0,0.667,-0.5
"MWP203",1,203,"tiger","invalid","nomask","giraffe","right","right",454.738150729,1,0.5,-0.333,-0.5
"MWP203",1,204,"noise","noise","mask","tomato","left","left",514.424492692,1,0,0.667,0.5
"MWP203",1,205,"noise","noise","mask","piano","right","right",443.606645771,1,0,0.667,0.5
"MWP203",1,206,"noise","noise","nomask","rhinoceros","left","left",511.495477374,1,0,0.667,-0.5
"MWP203",1,207,"skunk","valid","nomask","skunk","left","left",834.047281591,1,-0.5,-0.333,-0.5
"MWP203",1,208,"noise","noise","nomask","tiger","right","right",591.849218239,1,0,0.667,-0.5
"MWP203",1,209,"tiger","invalid","mask","skunk","right","right",613.407386903,1,0.5,-0.333,0.5
"MWP203",1,210,"tomato","valid","mask","tomato","left","left",485.218319285,1,-0.5,-0.333,0.5
"MWP203",1,211,"noise","noise","nomask","table","left","left",447.516644635,1,0,0.667,-0.5
"MWP203",1,212,"noise","noise","nomask","tomato","left","left",435.20319197,1,0,0.667,-0.5
"MWP203",1,213,"piano","valid","mask","piano","left","left",427.868001774,1,-0.5,-0.333,0.5
"MWP203",2,214,"noise","noise","mask","penguin","right","right",509.837156715,1,0,0.667,0.5
"MWP203",2,215,"tiger","valid","mask","tiger","left","left",437.452669838,1,-0.5,-0.333,0.5
"MWP203",2,216,"noise","noise","nomask","giraffe","right","right",417.157861346,1,0,0.667,-0.5
"MWP203",2,217,"noise","noise","mask","tomato","left","left",405.037671619,1,0,0.667,0.5
"MWP203",2,218,"table","valid","mask","table","right","right",399.793168326,1,-0.5,-0.333,0.5
"MWP203",2,219,"noise","noise","nomask","camel","right","right",401.609546534,1,0,0.667,-0.5
"MWP203",2,220,"noise","noise","mask","penguin","right","right",435.876495088,1,0,0.667,0.5
"MWP203",2,221,"raccoon","valid","mask","raccoon","left","left",806.985703297,1,-0.5,-0.333,0.5
"MWP203",2,222,"raccoon","invalid","mask","tomato","right","right",433.441088739,1,0.5,-0.333,0.5
"MWP203",2,223,"noise","noise","nomask","table","left","left",556.351914565,1,0,0.667,-0.5
"MWP203",2,224,"noise","noise","mask","skunk","right","right",624.805132655,1,0,0.667,0.5
"MWP203",2,225,"rhinoceros","valid","mask","rhinoceros","left","left",480.922161223,1,-0.5,-0.333,0.5
"MWP203",2,226,"piano","invalid","nomask","tiger","right","right",491.414835065,1,0.5,-0.333,-0.5
"MWP203",2,227,"penguin","valid","mask","penguin","right","right",447.254437779,1,-0.5,-0.333,0.5
"MWP203",2,228,"noise","noise","nomask","tiger","left","left",474.354888691,1,0,0.667,-0.5
"MWP203",2,229,"raccoon","valid","mask","raccoon","left","left",572.648710688,1,-0.5,-0.333,0.5
"MWP203",2,230,"noise","noise","mask","tiger","left","left",471.578430122,1,0,0.667,0.5
"MWP203",2,231,"raccoon","valid","nomask","raccoon","left","left",546.872129256,1,-0.5,-0.333,-0.5
"MWP203",2,232,"noise","noise","mask","camel","left","left",516.514446121,1,0,0.667,0.5
"MWP203",2,233,"tomato","valid","nomask","tomato","right","right",454.829831433,1,-0.5,-0.333,-0.5
"MWP203",2,234,"piano","valid","nomask","piano","left","left",519.479400275,1,-0.5,-0.333,-0.5
"MWP203",2,235,"noise","noise","nomask","skunk","left","left",667.173722119,1,0,0.667,-0.5
"MWP203",2,236,"giraffe","valid","nomask","giraffe","right","right",394.250152633,1,-0.5,-0.333,-0.5
"MWP203",2,237,"noise","noise","mask","skunk","right","right",620.691235876,1,0,0.667,0.5
"MWP203",2,238,"noise","noise","nomask","table","right","right",382.262716565,1,0,0.667,-0.5
"MWP203",2,239,"raccoon","invalid","mask","tiger","left","left",430.311476055,1,0.5,-0.333,0.5
"MWP203",2,240,"skunk","valid","nomask","skunk","right","right",575.592028181,1,-0.5,-0.333,-0.5
"MWP203",2,241,"noise","noise","mask","table","left","left",432.103650528,1,0,0.667,0.5
"MWP203",2,242,"noise","noise","nomask","rhinoceros","left","right",NA,0,0,0.667,-0.5
"MWP203",2,243,"penguin","valid","nomask","penguin","left","left",492.251329822,1,-0.5,-0.333,-0.5
"MWP203",2,244,"noise","noise","nomask","camel","left","left",510.535397014,1,0,0.667,-0.5
"MWP203",2,245,"piano","valid","nomask","piano","right","right",562.044553168,1,-0.5,-0.333,-0.5
"MWP203",2,246,"tiger","valid","mask","tiger","right","right",538.758019771,1,-0.5,-0.333,0.5
"MWP203",2,247,"noise","noise","mask","tomato","right","right",589.624677523,1,0,0.667,0.5
"MWP203",2,248,"noise","noise","mask","piano","left","left",505.321698438,1,0,0.667,0.5
"MWP203",2,249,"giraffe","valid","nomask","giraffe","right","right",433.130107762,1,-0.5,-0.333,-0.5
"MWP203",2,250,"rhinoceros","valid","nomask","rhinoceros","right","right",547.736494977,1,-0.5,-0.333,-0.5
"MWP203",2,251,"noise","noise","nomask","tomato","right","right",446.557297691,1,0,0.667,-0.5
"MWP203",2,252,"noise","noise","nomask","piano","left","left",633.514433284,1,0,0.667,-0.5
"MWP203",2,253,"noise","noise","mask","rhinoceros","left","left",596.597178781,1,0,0.667,0.5
"MWP203",2,254,"penguin","valid","nomask","penguin","right","right",382.342662138,1,-0.5,-0.333,-0.5
"MWP203",2,255,"noise","noise","mask","skunk","left","left",596.503297769,1,0,0.667,0.5
"MWP203",2,256,"noise","noise","nomask","penguin","left","left",528.189801087,1,0,0.667,-0.5
"MWP203",2,257,"noise","noise","mask","raccoon","left","left",523.410302354,1,0,0.667,0.5
"MWP203",2,258,"noise","noise","mask","rhinoceros","right","right",566.147448262,1,0,0.667,0.5
"MWP203",2,259,"table","invalid","nomask","skunk","right","right",654.048711789,1,0.5,-0.333,-0.5
"MWP203",2,260,"table","valid","mask","table","right","right",541.322145844,1,-0.5,-0.333,0.5
"MWP203",2,261,"penguin","valid","mask","penguin","left","left",528.227940231,1,-0.5,-0.333,0.5
"MWP203",2,262,"tiger","valid","nomask","tiger","right","right",438.476926705,1,-0.5,-0.333,-0.5
"MWP203",2,263,"noise","noise","nomask","skunk","right","right",640.009828174,1,0,0.667,-0.5
"MWP203",2,264,"table","valid","nomask","table","right","right",515.112464724,1,-0.5,-0.333,-0.5
"MWP203",2,265,"piano","valid","mask","piano","left","left",467.56941604,1,-0.5,-0.333,0.5
"MWP203",2,266,"tomato","valid","mask","tomato","right","right",451.056620193,1,-0.5,-0.333,0.5
"MWP203",2,267,"noise","noise","mask","table","right","right",502.29513488,1,0,0.667,0.5
"MWP203",2,268,"noise","noise","mask","piano","left","left",468.229150429,1,0,0.667,0.5
"MWP203",2,269,"noise","noise","mask","raccoon","right","right",563.702140382,1,0,0.667,0.5
"MWP203",2,270,"noise","noise","mask","giraffe","right","right",446.806302498,1,0,0.667,0.5
"MWP203",2,271,"noise","noise","mask","tiger","left","left",572.727556108,1,0,0.667,0.5
"MWP203",2,272,"skunk","valid","mask","skunk","left","left",791.909360792,1,-0.5,-0.333,0.5
"MWP203",2,273,"noise","noise","nomask","piano","right","right",539.826650114,1,0,0.667,-0.5
"MWP203",2,274,"skunk","invalid","nomask","table","left","left",527.952531382,1,0.5,-0.333,-0.5
"MWP203",2,275,"noise","noise","nomask","giraffe","right","right",467.001362384,1,0,0.667,-0.5
"MWP203",2,276,"noise","noise","mask","raccoon","right","right",619.260283362,1,0,0.667,0.5
"MWP203",2,277,"noise","noise","nomask","raccoon","right","right",462.341048551,1,0,0.667,-0.5
"MWP203",2,278,"noise","noise","mask","camel","right","right",458.075328526,1,0,0.667,0.5
"MWP203",2,279,"noise","noise","mask","piano","left","left",604.561665357,1,0,0.667,0.5
"MWP203",2,280,"noise","noise","nomask","camel","left","left",464.223803603,1,0,0.667,-0.5
"MWP203",2,281,"rhinoceros","invalid","mask","piano","right","right",481.734452333,1,0.5,-0.333,0.5
"MWP203",2,282,"noise","noise","nomask","tomato","left","left",532.628247573,1,0,0.667,-0.5
"MWP203",2,283,"camel","valid","mask","camel","left","left",429.964556242,1,-0.5,-0.333,0.5
"MWP203",2,284,"piano","valid","nomask","piano","right","right",480.578541959,1,-0.5,-0.333,-0.5
"MWP203",2,285,"raccoon","valid","nomask","raccoon","right","right",392.245278897,1,-0.5,-0.333,-0.5
"MWP203",2,286,"noise","noise","nomask","rhinoceros","left","left",441.419144045,1,0,0.667,-0.5
"MWP203",2,287,"camel","valid","nomask","camel","right","right",320.194143045,1,-0.5,-0.333,-0.5
"MWP203",2,288,"noise","noise","nomask","rhinoceros","right","left",NA,0,0,0.667,-0.5
"MWP203",2,289,"noise","noise","nomask","camel","left","left",471.31695674,1,0,0.667,-0.5
"MWP203",2,290,"tiger","valid","nomask","tiger","right","right",490.414781874,1,-0.5,-0.333,-0.5
"MWP203",2,291,"raccoon","invalid","mask","rhinoceros","right","right",631.359203195,1,0.5,-0.333,0.5
"MWP203",2,292,"table","invalid","nomask","camel","left","left",577.216243633,1,0.5,-0.333,-0.5
"MWP203",2,293,"noise","noise","nomask","tiger","right","right",527.93272835,1,0,0.667,-0.5
"MWP203",2,294,"penguin","invalid","mask","skunk","left","left",888.840074011,1,0.5,-0.333,0.5
"MWP203",2,295,"camel","valid","mask","camel","right","right",596.18608249,1,-0.5,-0.333,0.5
"MWP203",2,296,"giraffe","valid","nomask","giraffe","left","left",506.010403944,1,-0.5,-0.333,-0.5
"MWP203",2,297,"noise","noise","mask","rhinoceros","left","left",620.875330729,1,0,0.667,0.5
"MWP203",2,298,"giraffe","valid","mask","giraffe","left","left",513.904112973,1,-0.5,-0.333,0.5
"MWP203",2,299,"table","valid","nomask","table","right","right",572.046551795,1,-0.5,-0.333,-0.5
"MWP203",2,300,"piano","valid","mask","piano","right","right",586.269163585,1,-0.5,-0.333,0.5
"MWP203",2,301,"camel","valid","nomask","camel","right","right",468.21044758,1,-0.5,-0.333,-0.5
"MWP203",2,302,"noise","noise","nomask","tiger","left","left",599.107396614,1,0,0.667,-0.5
"MWP203",2,303,"table","valid","nomask","table","right","right",538.200967771,1,-0.5,-0.333,-0.5
"MWP203",2,304,"camel","invalid","nomask","penguin","right","right",542.801872507,1,0.5,-0.333,-0.5
"MWP203",2,305,"noise","noise","nomask","raccoon","left","left",591.880022956,1,0,0.667,-0.5
"MWP203",2,306,"noise","noise","nomask","tomato","left","left",731.98464897,1,0,0.667,-0.5
"MWP203",2,307,"tiger","invalid","nomask","giraffe","left","left",459.92251148,1,0.5,-0.333,-0.5
"MWP203",2,308,"skunk","valid","mask","skunk","left","left",538.383962499,1,-0.5,-0.333,0.5
"MWP203",2,309,"raccoon","valid","nomask","raccoon","left","left",420.883765386,1,-0.5,-0.333,-0.5
"MWP203",2,310,"noise","noise","mask","table","right","right",503.793197655,1,0,0.667,0.5
"MWP203",2,311,"tomato","valid","mask","tomato","left","left",634.839769598,1,-0.5,-0.333,0.5
"MWP203",2,312,"noise","noise","mask","raccoon","left","left",622.283913137,1,0,0.667,0.5
"MWP203",2,313,"rhinoceros","valid","mask","rhinoceros","right","right",406.243456295,1,-0.5,-0.333,0.5
"MWP203",2,314,"noise","noise","nomask","penguin","left","left",709.718338505,1,0,0.667,-0.5
"MWP203",2,315,"noise","noise","nomask","giraffe","left","left",480.609346647,1,0,0.667,-0.5
"MWP203",2,316,"tomato","valid","nomask","tomato","right","right",465.621384355,1,-0.5,-0.333,-0.5
"MWP203",2,317,"piano","invalid","mask","penguin","left","left",440.580082184,1,0.5,-0.333,0.5
"MWP203",2,318,"noise","noise","mask","giraffe","left","left",451.854242332,1,0,0.667,0.5
"MWP203",2,319,"rhinoceros","valid","nomask","rhinoceros","left","left",565.772657515,1,-0.5,-0.333,-0.5
"MWP204",0,0,"noise","noise","mask","chair","left","left",478.918803768,1,0,0.667,0.5
"MWP204",0,1,"noise","noise","nomask","pineapple","left","left",386.727436184,1,0,0.667,-0.5
"MWP204",0,2,"noise","noise","nomask","lightbulb","right","left",NA,0,0,0.667,-0.5
"MWP204",0,3,"pineapple","valid","mask","pineapple","right","left",NA,0,-0.5,-0.333,0.5
"MWP204",0,4,"noise","noise","mask","leopard","right","right",532.891979849,1,0,0.667,0.5
"MWP204",0,5,"noise","noise","nomask","lion","right","right",622.612606414,1,0,0.667,-0.5
"MWP204",0,6,"noise","noise","mask","pineapple","left","left",409.25963124,1,0,0.667,0.5
"MWP204",0,7,"noise","noise","nomask","lion","left","left",405.433512351,1,0,0.667,-0.5
"MWP204",0,8,"noise","noise","nomask","pineapple","left","left",432.389617228,1,0,0.667,-0.5
"MWP204",0,9,"tree","valid","nomask","tree","right","right",537.306905171,1,-0.5,-0.333,-0.5
"MWP204",0,10,"noise","noise","mask","kangaroo","right","right",594.31363779,1,0,0.667,0.5
"MWP204",0,11,"pig","valid","mask","pig","left","left",372.180868522,1,-0.5,-0.333,0.5
"MWP204",0,12,"tree","valid","nomask","tree","left","left",478.591189894,1,-0.5,-0.333,-0.5
"MWP204",0,13,"noise","noise","mask","bottle","left","left",460.431885527,1,0,0.667,0.5
"MWP204",0,14,"noise","noise","mask","kangaroo","left","left",440.1265661,1,0,0.667,0.5
"MWP204",0,15,"noise","noise","nomask","leopard","right","right",446.642263007,1,0,0.667,-0.5
"MWP204",0,16,"noise","noise","mask","lion","right","right",387.091308978,1,0,0.667,0.5
"MWP204",0,17,"lion","invalid","nomask","bottle","right","left",NA,0,0.5,-0.333,-0.5
"MWP204",0,18,"noise","noise","nomask","rabbit","left","left",645.972660132,1,0,0.667,-0.5
"MWP204",0,19,"chair","valid","mask","chair","left","left",423.620091169,1,-0.5,-0.333,0.5
"MWP204",0,20,"noise","noise","nomask","pig","left","left",531.520879042,1,0,0.667,-0.5
"MWP204",0,21,"pineapple","valid","nomask","pineapple","left","left",435.034914437,1,-0.5,-0.333,-0.5
"MWP204",0,22,"kangaroo","valid","nomask","kangaroo","left","left",387.390044023,1,-0.5,-0.333,-0.5
"MWP204",0,23,"noise","noise","mask","lightbulb","left","left",381.914946192,1,0,0.667,0.5
"MWP204",0,24,"rabbit","valid","mask","rabbit","left","left",385.790159024,1,-0.5,-0.333,0.5
"MWP204",0,25,"noise","noise","nomask","bottle","left","left",441.220109671,1,0,0.667,-0.5
"MWP204",0,26,"chair","valid","mask","chair","right","right",510.226621496,1,-0.5,-0.333,0.5
"MWP204",0,27,"rabbit","invalid","mask","lion","right","right",422.99951805,1,0.5,-0.333,0.5
"MWP204",0,28,"leopard","invalid","nomask","tree","left","left",512.913311657,1,0.5,-0.333,-0.5
"MWP204",0,29,"kangaroo","valid","mask","kangaroo","left","left",311.758095835,1,-0.5,-0.333,0.5
"MWP204",0,30,"lion","invalid","mask","pig","right","right",497.8247853,1,0.5,-0.333,0.5
"MWP204",0,31,"noise","noise","nomask","tree","right","right",483.769477956,1,0,0.667,-0.5
"MWP204",0,32,"noise","noise","mask","pineapple","right","right",424.165258562,1,0,0.667,0.5
"MWP204",0,33,"lion","valid","nomask","lion","right","left",NA,0,-0.5,-0.333,-0.5
"MWP204",0,34,"noise","noise","nomask","kangaroo","left","left",470.132913033,1,0,0.667,-0.5
"MWP204",0,35,"tree","valid","mask","tree","left","left",407.911954331,1,-0.5,-0.333,0.5
"MWP204",0,36,"noise","noise","nomask","pineapple","right","right",451.639577281,1,0,0.667,-0.5
"MWP204",0,37,"noise","noise","nomask","tree","right","right",445.793868304,1,0,0.667,-0.5
"MWP204",0,38,"noise","noise","mask","bottle","right","right",369.339516386,1,0,0.667,0.5
"MWP204",0,39,"lion","valid","mask","lion","left","left",420.440215443,1,-0.5,-0.333,0.5
"MWP204",0,40,"chair","valid","nomask","chair","right","right",402.425304987,1,-0.5,-0.333,-0.5
"MWP204",0,41,"pig","valid","mask","pig","left","left",384.864754218,1,-0.5,-0.333,0.5
"MWP204",0,42,"noise","noise","nomask","chair","right","right",403.996952955,1,0,0.667,-0.5
"MWP204",0,43,"noise","noise","nomask","kangaroo","left","left",350.308393419,1,0,0.667,-0.5
"MWP204",0,44,"rabbit","valid","nomask","rabbit","right","right",462.942094164,1,-0.5,-0.333,-0.5
"MWP204",0,45,"tree","valid","mask","tree","right","right",394.778522139,1,-0.5,-0.333,0.5
"MWP204",0,46,"bottle","valid","nomask","bottle","left","left",481.292640354,1,-0.5,-0.333,-0.5
"MWP204",0,47,"noise","noise","nomask","pig","right","right",394.850077369,1,0,0.667,-0.5
"MWP204",0,48,"pineapple","valid","nomask","pineapple","left","left",340.738924802,1,-0.5,-0.333,-0.5
"MWP204",0,49,"chair","valid","mask","chair","right","right",401.24833383,1,-0.5,-0.333,0.5
"MWP204",0,50,"rabbit","invalid","mask","leopard","left","left",435.041973746,1,0.5,-0.333,0.5
"MWP204",0,51,"lion","invalid","mask","pig","left","right",NA,0,0.5,-0.333,0.5
"MWP204",0,52,"noise","noise","nomask","rabbit","left","left",320.947327011,1,0,0.667,-0.5
"MWP204",0,53,"noise","noise","mask","tree","right","right",381.788200379,1,0,0.667,0.5
"MWP204",0,54,"kangaroo","invalid","nomask","rabbit","left","right",NA,0,0.5,-0.333,-0.5
"MWP204",0,55,"noise","noise","mask","bottle","left","left",376.587771956,1,0,0.667,0.5
"MWP204",0,56,"noise","noise","nomask","chair","right","right",475.803744863,1,0,0.667,-0.5
"MWP204",0,57,"noise","noise","mask","tree","right","right",406.632303057,1,0,0.667,0.5
"MWP204",0,58,"noise","noise","mask","lion","left","left",560.950612766,1,0,0.667,0.5
"MWP204",0,59,"kangaroo","valid","mask","kangaroo","left","left",372.035511915,1,-0.5,-0.333,0.5
"MWP204",0,60,"noise","noise","nomask","pig","left","left",404.098670464,1,0,0.667,-0.5
"MWP204",0,61,"bottle","invalid","mask","leopard","right","right",458.90997324,1,0.5,-0.333,0.5
"MWP204",0,62,"rabbit","valid","mask","rabbit","right","right",394.774029875,1,-0.5,-0.333,0.5
"MWP204",0,63,"lion","valid","nomask","lion","right","right",528.321750782,1,-0.5,-0.333,-0.5
"MWP204",0,64,"noise","noise","nomask","lightbulb","right","right",479.044586944,1,0,0.667,-0.5
"MWP204",0,65,"noise","noise","nomask","bottle","right","right",485.631839052,1,0,0.667,-0.5
"MWP204",0,66,"noise","noise","nomask","pig","right","right",437.969641323,1,0,0.667,-0.5
"MWP204",0,67,"tree","valid","mask","tree","left","left",546.20542319,1,-0.5,-0.333,0.5
"MWP204",0,68,"noise","noise","nomask","kangaroo","right","right",534.177086025,1,0,0.667,-0.5
"MWP204",0,69,"kangaroo","invalid","nomask","chair","left","left",477.354215051,1,0.5,-0.333,-0.5
"MWP204",0,70,"lightbulb","valid","mask","lightbulb","right","right",410.072729632,1,-0.5,-0.333,0.5
"MWP204",0,71,"bottle","valid","nomask","bottle","left","left",461.722446576,1,-0.5,-0.333,-0.5
"MWP204",0,72,"noise","noise","mask","lightbulb","right","right",387.934569648,1,0,0.667,0.5
"MWP204",0,73,"noise","noise","nomask","lightbulb","left","left",522.521285253,1,0,0.667,-0.5
"MWP204",0,74,"bottle","valid","mask","bottle","right","right",368.181476893,1,-0.5,-0.333,0.5
"MWP204",0,75,"noise","noise","mask","rabbit","left","right",NA,0,0,0.667,0.5
"MWP204",0,76,"leopard","invalid","mask","kangaroo","right","left",NA,0,0.5,-0.333,0.5
"MWP204",0,77,"leopard","valid","nomask","leopard","right","right",367.019586905,1,-0.5,-0.333,-0.5
"MWP204",0,78,"lightbulb","valid","mask","lightbulb","left","left",462.139905547,1,-0.5,-0.333,0.5
"MWP204",0,79,"leopard","valid","mask","leopard","right","right",655.543733068,1,-0.5,-0.333,0.5
"MWP204",0,80,"lightbulb","valid","nomask","lightbulb","right","right",601.216952229,1,-0.5,-0.333,-0.5
"MWP204",0,81,"rabbit","valid","nomask","rabbit","right","right",585.153927153,1,-0.5,-0.333,-0.5
"MWP204",0,82,"rabbit","invalid","nomask","lightbulb","right","right",709.919607878,1,0.5,-0.333,-0.5
"MWP204",0,83,"noise","noise","mask","tree","left","right",NA,0,0,0.667,0.5
"MWP204",0,84,"noise","noise","mask","leopard","right","right",324.263895658,1,0,0.667,0.5
"MWP204",0,85,"noise","noise","mask","lion","left","left",383.216417016,1,0,0.667,0.5
"MWP204",0,86,"chair","invalid","mask","lightbulb","left","left",387.554653134,1,0.5,-0.333,0.5
"MWP204",0,87,"chair","invalid","mask","pineapple","left","left",405.472338287,1,0.5,-0.333,0.5
"MWP204",0,88,"noise","noise","mask","kangaroo","right","right",388.201858907,1,0,0.667,0.5
"MWP204",0,89,"noise","noise","mask","chair","left","left",386.523038556,1,0,0.667,0.5
"MWP204",0,90,"noise","noise","nomask","leopard","right","right",409.007102251,1,0,0.667,-0.5
"MWP204",0,91,"pig","valid","mask","pig","right","right",502.826591837,1,-0.5,-0.333,0.5
"MWP204",0,92,"leopard","valid","mask","leopard","right","right",369.627020817,1,-0.5,-0.333,0.5
"MWP204",0,93,"kangaroo","valid","nomask","kangaroo","right","right",367.994406493,1,-0.5,-0.333,-0.5
"MWP204",0,94,"noise","noise","nomask","tree","left","left",396.248773439,1,0,0.667,-0.5
"MWP204",0,95,"noise","noise","mask","pig","right","left",NA,0,0,0.667,0.5
"MWP204",0,96,"noise","noise","mask","pineapple","left","left",409.325410728,1,0,0.667,0.5
"MWP204",0,97,"noise","noise","mask","rabbit","left","left",397.011815279,1,0,0.667,0.5
"MWP204",0,98,"lion","valid","mask","lion","right","right",416.536444711,1,-0.5,-0.333,0.5
"MWP204",0,99,"bottle","valid","nomask","bottle","right","right",344.827840687,1,-0.5,-0.333,-0.5
"MWP204",0,100,"noise","noise","mask","pig","right","right",420.441178081,1,0,0.667,0.5
"MWP204",0,101,"noise","noise","mask","leopard","right","right",383.370116353,1,0,0.667,0.5
"MWP204",0,102,"chair","valid","nomask","chair","right","right",393.825842912,1,-0.5,-0.333,-0.5
"MWP204",0,103,"pig","valid","nomask","pig","right","right",394.847510353,1,-0.5,-0.333,-0.5
"MWP204",0,104,"noise","noise","nomask","chair","left","left",485.848109121,1,0,0.667,-0.5
"MWP204",0,105,"lightbulb","valid","nomask","lightbulb","right","right",436.644746602,1,-0.5,-0.333,-0.5
"MWP204",0,106,"noise","noise","mask","rabbit","right","right",392.237830325,1,0,0.667,0.5
"MWP204",1,107,"noise","noise","nomask","kangaroo","left","left",522.241802741,1,0,0.667,-0.5
"MWP204",1,108,"noise","noise","nomask","leopard","left","left",500.049414812,1,0,0.667,-0.5
"MWP204",1,109,"noise","noise","nomask","pineapple","right","right",383.880950074,1,0,0.667,-0.5
"MWP204",1,110,"lightbulb","valid","mask","lightbulb","right","right",401.670926833,1,-0.5,-0.333,0.5
"MWP204",1,111,"noise","noise","nomask","leopard","left","left",499.814854877,1,0,0.667,-0.5
"MWP204",1,112,"lion","valid","mask","lion","left","left",512.303969183,1,-0.5,-0.333,0.5
"MWP204",1,113,"noise","noise","mask","pig","left","left",425.048628676,1,0,0.667,0.5
