"subj_id","block_ix","trial_ix","cue","cue_type","cue_l","cue_q","mask_type","mask_c","mask_m","mask_r","pic","up_pic","response","rt","is_correct","is_error"
"MWP501",0,0,"noise","noise",0,0.666666666666667,"nomask",-0.5,-0.666666666666667,0,"elephant","left","left",494.914779672,1,0
"MWP501",0,1,"noise","noise",0,0.666666666666667,"nomask",-0.5,-0.666666666666667,0,"leopard","left","left",414.629010716,1,0
"MWP501",0,2,"raccoon","valid",-0.5,-0.333333333333333,"nomask",-0.5,-0.666666666666667,0,"raccoon","right","right",396.907652728,1,0
"MWP501",0,3,"noise","noise",0,0.666666666666667,"during",0.5,0.333333333333333,-0.5,"chair","left","left",339.876292041,1,0
"MWP501",0,4,"raccoon","valid",-0.5,-0.333333333333333,"during",0.5,0.333333333333333,-0.5,"raccoon","left","left",474.32941501,1,0
"MWP501",0,5,"penguin","valid",-0.5,-0.333333333333333,"during",0.5,0.333333333333333,-0.5,"penguin","left","left",403.863153188,1,0
"MWP501",0,6,"chair","valid",-0.5,-0.333333333333333,"nomask",-0.5,-0.666666666666667,0,"chair","right","right",347.564463504,1,0
"MWP501",0,7,"noise","noise",0,0.666666666666667,"after",0.5,0.333333333333333,0.5,"elephant","right","right",362.397639547,1,0
"MWP501",0,8,"noise","noise",0,0.666666666666667,"nomask",-0.5,-0.666666666666667,0,"raccoon","left","left",362.23932961,1,0
"MWP501",0,9,"rabbit","invalid",0.5,-0.333333333333333,"nomask",-0.5,-0.666666666666667,0,"chair","left","left",368.979590945,1,0
"MWP501",0,10,"noise","noise",0,0.666666666666667,"during",0.5,0.333333333333333,-0.5,"gorilla","left","left",343.879272696,1,0
"MWP501",0,11,"noise","noise",0,0.666666666666667,"during",0.5,0.333333333333333,-0.5,"leopard","right","right",334.813882597,1,0
"MWP501",0,12,"chair","valid",-0.5,-0.333333333333333,"nomask",-0.5,-0.666666666666667,0,"chair","right","right",305.923873093,1,0
"MWP501",0,13,"noise","noise",0,0.666666666666667,"nomask",-0.5,-0.666666666666667,0,"leopard","right","right",529.666546965,1,0
"MWP501",0,14,"noise","noise",0,0.666666666666667,"nomask",-0.5,-0.666666666666667,0,"donkey","right","right",457.090785494,1,0
"MWP501",0,15,"gorilla","valid",-0.5,-0.333333333333333,"nomask",-0.5,-0.666666666666667,0,"gorilla","right","right",407.302690437,1,0
"MWP501",0,16,"noise","noise",0,0.666666666666667,"nomask",-0.5,-0.666666666666667,0,"donkey","left","left",503.023291472,1,0
"MWP501",0,17,"noise","noise",0,0.666666666666667,"nomask",-0.5,-0.666666666666667,0,"penguin","right","right",389.309943886,1,0
"MWP501",0,18,"rabbit","valid",-0.5,-0.333333333333333,"nomask",-0.5,-0.666666666666667,0,"rabbit","left","right",NA,0,1
"MWP501",0,19,"noise","noise",0,0.666666666666667,"after",0.5,0.333333333333333,0.5,"penguin","left","left",421.948702075,1,0
"MWP501",0,20,"noise","noise",0,0.666666666666667,"nomask",-0.5,-0.666666666666667,0,"skunk","right","right",348.874225048,1,0
"MWP501",0,21,"noise","noise",0,0.666666666666667,"nomask",-0.5,-0.666666666666667,0,"chair","right","right",371.835408965,1,0
"MWP501",0,22,"elephant","valid",-0.5,-0.333333333333333,"after",0.5,0.333333333333333,0.5,"elephant","left","left",375.104938867,1,0
"MWP501",0,23,"skunk","valid",-0.5,-0.333333333333333,"nomask",-0.5,-0.666666666666667,0,"skunk","right","left",NA,0,1
"MWP501",0,24,"noise","noise",0,0.666666666666667,"nomask",-0.5,-0.666666666666667,0,"gorilla","right","right",440.927181626,1,0
"MWP501",0,25,"raccoon","valid",-0.5,-0.333333333333333,"after",0.5,0.333333333333333,0.5,"raccoon","right","right",358.439890435,1,0
"MWP501",0,26,"noise","noise",0,0.666666666666667,"after",0.5,0.333333333333333,0.5,"chicken","right","right",365.541223204,1,0
"MWP501",0,27,"leopard","invalid",0.5,-0.333333333333333,"nomask",-0.5,-0.666666666666667,0,"donkey","right","right",364.486473147,1,0
"MWP501",0,28,"penguin","invalid",0.5,-0.333333333333333,"during",0.5,0.333333333333333,-0.5,"elephant","right","right",453.392336844,1,0
"MWP501",0,29,"rabbit","invalid",0.5,-0.333333333333333,"during",0.5,0.333333333333333,-0.5,"raccoon","right","right",312.714044936,1,0
"MWP501",0,30,"noise","noise",0,0.666666666666667,"during",0.5,0.333333333333333,-0.5,"elephant","right","right",415.020886343,1,0
"MWP501",0,31,"chair","valid",-0.5,-0.333333333333333,"during",0.5,0.333333333333333,-0.5,"chair","left","left",304.755264893,1,0
"MWP501",0,32,"chicken","valid",-0.5,-0.333333333333333,"nomask",-0.5,-0.666666666666667,0,"chicken","right","right",566.592931515,1,0
"MWP501",0,33,"penguin","valid",-0.5,-0.333333333333333,"nomask",-0.5,-0.666666666666667,0,"penguin","right","right",363.202446839,1,0
"MWP501",0,34,"noise","noise",0,0.666666666666667,"during",0.5,0.333333333333333,-0.5,"leopard","right","right",378.924654331,1,0
"MWP501",0,35,"noise","noise",0,0.666666666666667,"nomask",-0.5,-0.666666666666667,0,"rabbit","right","right",313.743059989,1,0
"MWP501",0,36,"gorilla","valid",-0.5,-0.333333333333333,"nomask",-0.5,-0.666666666666667,0,"gorilla","left","left",341.141602024,1,0
"MWP501",0,37,"donkey","valid",-0.5,-0.333333333333333,"nomask",-0.5,-0.666666666666667,0,"donkey","right","right",345.887781819,1,0
"MWP501",0,38,"noise","noise",0,0.666666666666667,"nomask",-0.5,-0.666666666666667,0,"leopard","left","left",380.022295984,1,0
"MWP501",0,39,"noise","noise",0,0.666666666666667,"nomask",-0.5,-0.666666666666667,0,"skunk","left","left",378.946489887,1,0
"MWP501",0,40,"raccoon","invalid",0.5,-0.333333333333333,"during",0.5,0.333333333333333,-0.5,"rabbit","left","left",615.403091768,1,0
"MWP501",0,41,"noise","noise",0,0.666666666666667,"after",0.5,0.333333333333333,0.5,"raccoon","left","left",478.31484885,1,0
"MWP501",0,42,"noise","noise",0,0.666666666666667,"during",0.5,0.333333333333333,-0.5,"rabbit","right","right",334.041438997,1,0
"MWP501",0,43,"gorilla","valid",-0.5,-0.333333333333333,"after",0.5,0.333333333333333,0.5,"gorilla","right","right",356.994044734,1,0
"MWP501",0,44,"elephant","valid",-0.5,-0.333333333333333,"nomask",-0.5,-0.666666666666667,0,"elephant","left","left",498.10281489,1,0
"MWP501",0,45,"elephant","invalid",0.5,-0.333333333333333,"nomask",-0.5,-0.666666666666667,0,"donkey","left","left",433.815710712,1,0
"MWP501",0,46,"elephant","valid",-0.5,-0.333333333333333,"during",0.5,0.333333333333333,-0.5,"elephant","right","right",383.657966275,1,0
"MWP501",0,47,"noise","noise",0,0.666666666666667,"during",0.5,0.333333333333333,-0.5,"raccoon","right","right",286.613566568,1,0
"MWP501",0,48,"noise","noise",0,0.666666666666667,"after",0.5,0.333333333333333,0.5,"rabbit","right","right",389.309943886,1,0
"MWP501",0,49,"noise","noise",0,0.666666666666667,"nomask",-0.5,-0.666666666666667,0,"elephant","right","right",365.089688916,1,0
"MWP501",0,50,"noise","noise",0,0.666666666666667,"nomask",-0.5,-0.666666666666667,0,"rabbit","left","left",444.180334685,1,0
"MWP501",0,51,"noise","noise",0,0.666666666666667,"after",0.5,0.333333333333333,0.5,"skunk","left","right",NA,0,1
"MWP501",0,52,"noise","noise",0,0.666666666666667,"nomask",-0.5,-0.666666666666667,0,"gorilla","right","right",434.780387906,1,0
"MWP501",0,53,"rabbit","valid",-0.5,-0.333333333333333,"nomask",-0.5,-0.666666666666667,0,"rabbit","left","left",348.164169816,1,0
"MWP501",0,54,"noise","noise",0,0.666666666666667,"after",0.5,0.333333333333333,0.5,"donkey","right","right",379.021355882,1,0
"MWP501",0,55,"noise","noise",0,0.666666666666667,"after",0.5,0.333333333333333,0.5,"chair","left","left",307.541676331,1,0
"MWP501",0,56,"leopard","valid",-0.5,-0.333333333333333,"after",0.5,0.333333333333333,0.5,"leopard","left","left",376.681020018,1,0
"MWP501",0,57,"noise","noise",0,0.666666666666667,"nomask",-0.5,-0.666666666666667,0,"gorilla","left","left",359.616687056,1,0
"MWP501",0,58,"noise","noise",0,0.666666666666667,"nomask",-0.5,-0.666666666666667,0,"elephant","left","left",359.353876906,1,0
"MWP501",0,59,"chicken","valid",-0.5,-0.333333333333333,"during",0.5,0.333333333333333,-0.5,"chicken","right","right",317.05275178,1,0
"MWP501",0,60,"noise","noise",0,0.666666666666667,"nomask",-0.5,-0.666666666666667,0,"raccoon","left","left",332.74610457,1,0
"MWP501",0,61,"leopard","valid",-0.5,-0.333333333333333,"during",0.5,0.333333333333333,-0.5,"leopard","left","left",321.661677677,1,0
"MWP501",0,62,"noise","noise",0,0.666666666666667,"nomask",-0.5,-0.666666666666667,0,"raccoon","left","left",312.063258374,1,0
"MWP501",0,63,"leopard","valid",-0.5,-0.333333333333333,"nomask",-0.5,-0.666666666666667,0,"leopard","right","right",382.504565176,1,0
"MWP501",0,64,"noise","noise",0,0.666666666666667,"nomask",-0.5,-0.666666666666667,0,"elephant","right","right",372.215976939,1,0
"MWP501",0,65,"noise","noise",0,0.666666666666667,"nomask",-0.5,-0.666666666666667,0,"chicken","right","right",379.945870489,1,0
"MWP501",0,66,"noise","noise",0,0.666666666666667,"during",0.5,0.333333333333333,-0.5,"raccoon","left","left",306.693586987,1,0
"MWP501",0,67,"noise","noise",0,0.666666666666667,"nomask",-0.5,-0.666666666666667,0,"chicken","right","right",481.517311418,1,0
"MWP501",0,68,"noise","noise",0,0.666666666666667,"nomask",-0.5,-0.666666666666667,0,"penguin","left","left",425.327801146,1,0
"MWP501",0,69,"chicken","invalid",0.5,-0.333333333333333,"nomask",-0.5,-0.666666666666667,0,"leopard","left","left",359.008792555,1,0
"MWP501",0,70,"skunk","invalid",0.5,-0.333333333333333,"after",0.5,0.333333333333333,0.5,"penguin","left","left",377.922154497,1,0
"MWP501",0,71,"noise","noise",0,0.666666666666667,"during",0.5,0.333333333333333,-0.5,"rabbit","left","left",328.485382954,1,0
"MWP501",0,72,"noise","noise",0,0.666666666666667,"after",0.5,0.333333333333333,0.5,"donkey","right","right",286.971128546,1,0
"MWP501",0,73,"noise","noise",0,0.666666666666667,"nomask",-0.5,-0.666666666666667,0,"chair","right","right",422.565565212,1,0
"MWP501",0,74,"donkey","valid",-0.5,-0.333333333333333,"during",0.5,0.333333333333333,-0.5,"donkey","left","left",377.772032749,1,0
"MWP501",0,75,"noise","noise",0,0.666666666666667,"during",0.5,0.333333333333333,-0.5,"penguin","right","right",449.742239434,1,0
"MWP501",0,76,"chair","valid",-0.5,-0.333333333333333,"after",0.5,0.333333333333333,0.5,"chair","left","left",472.454260802,1,0
"MWP501",0,77,"skunk","valid",-0.5,-0.333333333333333,"nomask",-0.5,-0.666666666666667,0,"skunk","left","left",508.515399415,1,0
"MWP501",0,78,"noise","noise",0,0.666666666666667,"nomask",-0.5,-0.666666666666667,0,"chicken","right","right",427.327731624,1,0
"MWP501",0,79,"noise","noise",0,0.666666666666667,"nomask",-0.5,-0.666666666666667,0,"penguin","left","left",339.031712385,1,0
"MWP501",0,80,"rabbit","valid",-0.5,-0.333333333333333,"after",0.5,0.333333333333333,0.5,"rabbit","right","right",381.499335868,1,0
"MWP501",0,81,"skunk","valid",-0.5,-0.333333333333333,"nomask",-0.5,-0.666666666666667,0,"skunk","right","right",327.546440996,1,0
"MWP501",0,82,"donkey","invalid",0.5,-0.333333333333333,"nomask",-0.5,-0.666666666666667,0,"chicken","right","right",506.934639532,1,0
"MWP501",0,83,"penguin","valid",-0.5,-0.333333333333333,"after",0.5,0.333333333333333,0.5,"penguin","left","left",319.303404773,1,0
"MWP501",0,84,"noise","noise",0,0.666666666666667,"nomask",-0.5,-0.666666666666667,0,"chair","right","right",374.539936194,1,0
"MWP501",0,85,"chicken","valid",-0.5,-0.333333333333333,"nomask",-0.5,-0.666666666666667,0,"chicken","left","left",484.244064195,1,0
"MWP501",0,86,"donkey","invalid",0.5,-0.333333333333333,"nomask",-0.5,-0.666666666666667,0,"gorilla","right","right",330.364826601,1,0
"MWP501",0,87,"chicken","valid",-0.5,-0.333333333333333,"after",0.5,0.333333333333333,0.5,"chicken","left","right",NA,0,1
"MWP501",0,88,"noise","noise",0,0.666666666666667,"after",0.5,0.333333333333333,0.5,"leopard","left","left",440.431195777,1,0
"MWP501",0,89,"noise","noise",0,0.666666666666667,"during",0.5,0.333333333333333,-0.5,"skunk","right","right",568.320303923,1,0
"MWP501",0,90,"chicken","valid",-0.5,-0.333333333333333,"nomask",-0.5,-0.666666666666667,0,"chicken","right","right",326.084218454,1,0
"MWP501",0,91,"skunk","valid",-0.5,-0.333333333333333,"during",0.5,0.333333333333333,-0.5,"skunk","left","left",400.000155903,1,0
"MWP501",0,92,"leopard","invalid",0.5,-0.333333333333333,"during",0.5,0.333333333333333,-0.5,"penguin","right","right",439.617420081,1,0
"MWP501",0,93,"raccoon","valid",-0.5,-0.333333333333333,"nomask",-0.5,-0.666666666666667,0,"raccoon","left","left",373.413829599,1,0
"MWP501",0,94,"leopard","valid",-0.5,-0.333333333333333,"nomask",-0.5,-0.666666666666667,0,"leopard","left","left",388.044244144,1,0
"MWP501",0,95,"noise","noise",0,0.666666666666667,"during",0.5,0.333333333333333,-0.5,"chicken","right","right",394.79971258,1,0
"MWP501",0,96,"noise","noise",0,0.666666666666667,"nomask",-0.5,-0.666666666666667,0,"penguin","right","right",410.569880623,1,0
"MWP501",0,97,"noise","noise",0,0.666666666666667,"nomask",-0.5,-0.666666666666667,0,"rabbit","right","right",376.019315328,1,0
"MWP501",0,98,"donkey","valid",-0.5,-0.333333333333333,"after",0.5,0.333333333333333,0.5,"donkey","right","right",323.408156401,1,0
"MWP501",0,99,"gorilla","invalid",0.5,-0.333333333333333,"after",0.5,0.333333333333333,0.5,"skunk","left","left",393.109383294,1,0
"MWP501",0,100,"rabbit","invalid",0.5,-0.333333333333333,"nomask",-0.5,-0.666666666666667,0,"elephant","right","right",413.839410525,1,0
"MWP501",0,101,"noise","noise",0,0.666666666666667,"after",0.5,0.333333333333333,0.5,"gorilla","left","left",476.54653457,1,0
"MWP501",0,102,"donkey","valid",-0.5,-0.333333333333333,"nomask",-0.5,-0.666666666666667,0,"donkey","left","left",376.23923365,1,0
"MWP501",0,103,"noise","noise",0,0.666666666666667,"after",0.5,0.333333333333333,0.5,"skunk","right","right",304.161407519,1,0
"MWP501",0,104,"elephant","valid",-0.5,-0.333333333333333,"nomask",-0.5,-0.666666666666667,0,"elephant","right","right",498.330921633,1,0
"MWP501",0,105,"gorilla","valid",-0.5,-0.333333333333333,"nomask",-0.5,-0.666666666666667,0,"gorilla","left","left",366.070352728,1,0
"MWP501",1,106,"noise","noise",0,0.666666666666667,"nomask",-0.5,-0.666666666666667,0,"donkey","left","left",452.029155567,1,0
"MWP501",1,107,"gorilla","invalid",0.5,-0.333333333333333,"after",0.5,0.333333333333333,0.5,"chair","right","right",374.727880349,1,0
"MWP501",1,108,"noise","noise",0,0.666666666666667,"after",0.5,0.333333333333333,0.5,"gorilla","right","right",365.461678477,1,0
"MWP501",1,109,"noise","noise",0,0.666666666666667,"nomask",-0.5,-0.666666666666667,0,"chicken","left","right",NA,0,1
"MWP501",1,110,"noise","noise",0,0.666666666666667,"nomask",-0.5,-0.666666666666667,0,"chair","left","left",508.457690477,1,0
"MWP501",1,111,"penguin","valid",-0.5,-0.333333333333333,"after",0.5,0.333333333333333,0.5,"penguin","right","right",387.058511144,1,0
"MWP501",1,112,"skunk","valid",-0.5,-0.333333333333333,"during",0.5,0.333333333333333,-0.5,"skunk","left","left",333.616809454,1,0
"MWP501",1,113,"noise","noise",0,0.666666666666667,"nomask",-0.5,-0.666666666666667,0,"raccoon","right","right",358.208274236,1,0
"MWP501",1,114,"noise","noise",0,0.666666666666667,"after",0.5,0.333333333333333,0.5,"rabbit","left","left",380.994381616,1,0
"MWP501",1,115,"skunk","valid",-0.5,-0.333333333333333,"after",0.5,0.333333333333333,0.5,"skunk","left","left",306.847997708,1,0
"MWP501",1,116,"donkey","invalid",0.5,-0.333333333333333,"nomask",-0.5,-0.666666666666667,0,"raccoon","left","left",358.171231113,1,0
"MWP501",1,117,"chair","valid",-0.5,-0.333333333333333,"after",0.5,0.333333333333333,0.5,"chair","right","right",380.903918762,1,0
"MWP501",1,118,"noise","noise",0,0.666666666666667,"after",0.5,0.333333333333333,0.5,"raccoon","left","left",476.663122419,1,0
"MWP501",1,119,"noise","noise",0,0.666666666666667,"nomask",-0.5,-0.666666666666667,0,"penguin","right","right",329.747183714,1,0
"MWP501",1,120,"raccoon","invalid",0.5,-0.333333333333333,"after",0.5,0.333333333333333,0.5,"donkey","left","left",396.272463026,1,0
"MWP501",1,121,"leopard","valid",-0.5,-0.333333333333333,"nomask",-0.5,-0.666666666666667,0,"leopard","right","right",401.499421569,1,0
"MWP501",1,122,"noise","noise",0,0.666666666666667,"after",0.5,0.333333333333333,0.5,"penguin","left","left",432.050905656,1,0
"MWP501",1,123,"rabbit","valid",-0.5,-0.333333333333333,"during",0.5,0.333333333333333,-0.5,"rabbit","right","right",311.819554539,1,0
"MWP501",1,124,"raccoon","valid",-0.5,-0.333333333333333,"during",0.5,0.333333333333333,-0.5,"raccoon","left","left",347.896680469,1,0
"MWP501",1,125,"elephant","valid",-0.5,-0.333333333333333,"during",0.5,0.333333333333333,-0.5,"elephant","right","right",330.128531205,1,0
"MWP501",1,126,"chair","invalid",0.5,-0.333333333333333,"during",0.5,0.333333333333333,-0.5,"gorilla","left","left",396.540342364,1,0
"MWP501",1,127,"noise","noise",0,0.666666666666667,"during",0.5,0.333333333333333,-0.5,"penguin","left","left",348.306102911,1,0
"MWP501",1,128,"noise","noise",0,0.666666666666667,"nomask",-0.5,-0.666666666666667,0,"leopard","left","left",355.231968919,1,0
"MWP501",1,129,"noise","noise",0,0.666666666666667,"after",0.5,0.333333333333333,0.5,"elephant","right","right",358.496819623,1,0
"MWP501",1,130,"noise","noise",0,0.666666666666667,"during",0.5,0.333333333333333,-0.5,"rabbit","right","right",325.449808966,1,0
"MWP501",1,131,"noise","noise",0,0.666666666666667,"nomask",-0.5,-0.666666666666667,0,"elephant","left","left",348.471431527,1,0
"MWP501",1,132,"donkey","valid",-0.5,-0.333333333333333,"nomask",-0.5,-0.666666666666667,0,"donkey","left","left",351.673114114,1,0
"MWP501",1,133,"chicken","valid",-0.5,-0.333333333333333,"nomask",-0.5,-0.666666666666667,0,"chicken","right","right",526.769006625,1,0
"MWP501",1,134,"elephant","valid",-0.5,-0.333333333333333,"nomask",-0.5,-0.666666666666667,0,"elephant","left","left",330.25564719,1,0
"MWP501",1,135,"noise","noise",0,0.666666666666667,"after",0.5,0.333333333333333,0.5,"chair","right","right",352.63389186,1,0
"MWP501",1,136,"rabbit","invalid",0.5,-0.333333333333333,"nomask",-0.5,-0.666666666666667,0,"chicken","left","left",305.376417004,1,0
"MWP501",1,137,"skunk","valid",-0.5,-0.333333333333333,"after",0.5,0.333333333333333,0.5,"skunk","right","right",405.39868176,1,0
"MWP501",1,138,"noise","noise",0,0.666666666666667,"during",0.5,0.333333333333333,-0.5,"raccoon","right","right",371.851396048,1,0
"MWP501",1,139,"noise","noise",0,0.666666666666667,"nomask",-0.5,-0.666666666666667,0,"rabbit","left","left",394.722507335,1,0
"MWP501",1,140,"noise","noise",0,0.666666666666667,"nomask",-0.5,-0.666666666666667,0,"skunk","left","left",407.735898392,1,0
"MWP501",1,141,"raccoon","valid",-0.5,-0.333333333333333,"nomask",-0.5,-0.666666666666667,0,"raccoon","left","left",318.305194378,1,0
"MWP501",1,142,"noise","noise",0,0.666666666666667,"after",0.5,0.333333333333333,0.5,"skunk","left","left",431.019551354,1,0
"MWP501",1,143,"noise","noise",0,0.666666666666667,"during",0.5,0.333333333333333,-0.5,"elephant","left","left",365.916721756,1,0
"MWP501",1,144,"raccoon","valid",-0.5,-0.333333333333333,"nomask",-0.5,-0.666666666666667,0,"raccoon","right","right",396.824598545,1,0
"MWP501",1,145,"noise","noise",0,0.666666666666667,"nomask",-0.5,-0.666666666666667,0,"donkey","right","right",332.583895419,1,0
"MWP501",1,146,"penguin","valid",-0.5,-0.333333333333333,"after",0.5,0.333333333333333,0.5,"penguin","right","right",353.496018331,1,0
"MWP501",1,147,"noise","noise",0,0.666666666666667,"after",0.5,0.333333333333333,0.5,"chicken","left","left",344.571001595,1,0
"MWP501",1,148,"noise","noise",0,0.666666666666667,"nomask",-0.5,-0.666666666666667,0,"gorilla","right","right",342.962556519,1,0
"MWP501",1,149,"chair","valid",-0.5,-0.333333333333333,"after",0.5,0.333333333333333,0.5,"chair","right","right",309.23551484,1,0
"MWP501",1,150,"noise","noise",0,0.666666666666667,"during",0.5,0.333333333333333,-0.5,"donkey","left","left",340.130133787,1,0
"MWP501",1,151,"skunk","valid",-0.5,-0.333333333333333,"nomask",-0.5,-0.666666666666667,0,"skunk","right","right",333.642154699,1,0
"MWP501",1,152,"chair","valid",-0.5,-0.333333333333333,"nomask",-0.5,-0.666666666666667,0,"chair","left","left",341.124835424,1,0
"MWP501",1,153,"noise","noise",0,0.666666666666667,"nomask",-0.5,-0.666666666666667,0,"gorilla","left","right",NA,0,1
"MWP501",1,154,"skunk","valid",-0.5,-0.333333333333333,"nomask",-0.5,-0.666666666666667,0,"skunk","left","left",493.794522248,1,0
"MWP501",1,155,"donkey","valid",-0.5,-0.333333333333333,"during",0.5,0.333333333333333,-0.5,"donkey","left","left",392.478872789,1,0
"MWP501",1,156,"noise","noise",0,0.666666666666667,"during",0.5,0.333333333333333,-0.5,"skunk","right","right",463.294508401,1,0
"MWP501",1,157,"rabbit","valid",-0.5,-0.333333333333333,"after",0.5,0.333333333333333,0.5,"rabbit","left","left",348.587629385,1,0
"MWP501",1,158,"leopard","valid",-0.5,-0.333333333333333,"after",0.5,0.333333333333333,0.5,"leopard","left","left",411.452283384,1,0
"MWP501",1,159,"chicken","valid",-0.5,-0.333333333333333,"nomask",-0.5,-0.666666666666667,0,"chicken","left","left",529.409585753,1,0
"MWP501",1,160,"penguin","invalid",0.5,-0.333333333333333,"during",0.5,0.333333333333333,-0.5,"leopard","right","right",381.143723149,1,0
"MWP501",1,161,"noise","noise",0,0.666666666666667,"nomask",-0.5,-0.666666666666667,0,"donkey","left","left",319.871527143,1,0
"MWP501",1,162,"noise","noise",0,0.666666666666667,"nomask",-0.5,-0.666666666666667,0,"penguin","left","left",320.066879969,1,0
"MWP501",1,163,"noise","noise",0,0.666666666666667,"during",0.5,0.333333333333333,-0.5,"chair","right","right",409.265578026,1,0
"MWP501",1,164,"noise","noise",0,0.666666666666667,"nomask",-0.5,-0.666666666666667,0,"elephant","right","right",352.363283047,1,0
"MWP501",1,165,"gorilla","valid",-0.5,-0.333333333333333,"during",0.5,0.333333333333333,-0.5,"gorilla","left","left",350.368811516,1,0
"MWP501",1,166,"penguin","valid",-0.5,-0.333333333333333,"during",0.5,0.333333333333333,-0.5,"penguin","left","left",338.823491707,1,0
"MWP501",1,167,"rabbit","invalid",0.5,-0.333333333333333,"after",0.5,0.333333333333333,0.5,"chicken","left","left",544.520779047,1,0
"MWP501",1,168,"noise","noise",0,0.666666666666667,"during",0.5,0.333333333333333,-0.5,"penguin","left","left",423.411314609,1,0
"MWP501",1,169,"rabbit","valid",-0.5,-0.333333333333333,"after",0.5,0.333333333333333,0.5,"rabbit","right","right",497.580704046,1,0
"MWP501",1,170,"elephant","valid",-0.5,-0.333333333333333,"after",0.5,0.333333333333333,0.5,"elephant","left","left",417.090223869,1,0
"MWP501",1,171,"chair","invalid",0.5,-0.333333333333333,"nomask",-0.5,-0.666666666666667,0,"penguin","right","right",472.175463568,1,0
"MWP501",1,172,"gorilla","valid",-0.5,-0.333333333333333,"nomask",-0.5,-0.666666666666667,0,"gorilla","right","right",307.690628106,1,0
"MWP501",1,173,"raccoon","invalid",0.5,-0.333333333333333,"after",0.5,0.333333333333333,0.5,"elephant","left","left",368.602532428,1,0
"MWP501",1,174,"chicken","valid",-0.5,-0.333333333333333,"after",0.5,0.333333333333333,0.5,"chicken","right","right",430.408927146,1,0
"MWP501",1,175,"donkey","valid",-0.5,-0.333333333333333,"nomask",-0.5,-0.666666666666667,0,"donkey","left","left",411.071715644,1,0
"MWP501",1,176,"noise","noise",0,0.666666666666667,"after",0.5,0.333333333333333,0.5,"chicken","right","right",458.733543754,1,0
"MWP501",1,177,"gorilla","valid",-0.5,-0.333333333333333,"nomask",-0.5,-0.666666666666667,0,"gorilla","left","left",343.938541366,1,0
"MWP501",1,178,"chicken","invalid",0.5,-0.333333333333333,"nomask",-0.5,-0.666666666666667,0,"rabbit","left","left",478.396343533,1,0
"MWP501",1,179,"leopard","valid",-0.5,-0.333333333333333,"during",0.5,0.333333333333333,-0.5,"leopard","right","right",393.33281084,1,0
"MWP501",1,180,"noise","noise",0,0.666666666666667,"after",0.5,0.333333333333333,0.5,"rabbit","left","left",328.637843952,1,0
"MWP501",1,181,"noise","noise",0,0.666666666666667,"nomask",-0.5,-0.666666666666667,0,"raccoon","right","right",383.303523529,1,0
"MWP501",1,182,"penguin","valid",-0.5,-0.333333333333333,"nomask",-0.5,-0.666666666666667,0,"penguin","left","left",350.940053118,1,0
"MWP501",1,183,"noise","noise",0,0.666666666666667,"during",0.5,0.333333333333333,-0.5,"chicken","left","left",542.773910332,1,0
"MWP501",1,184,"noise","noise",0,0.666666666666667,"nomask",-0.5,-0.666666666666667,0,"gorilla","left","left",316.196864471,1,0
"MWP501",1,185,"noise","noise",0,0.666666666666667,"after",0.5,0.333333333333333,0.5,"donkey","left","left",338.325166376,1,0
"MWP501",1,186,"noise","noise",0,0.666666666666667,"during",0.5,0.333333333333333,-0.5,"leopard","left","left",355.100173969,1,0
"MWP501",1,187,"chicken","invalid",0.5,-0.333333333333333,"nomask",-0.5,-0.666666666666667,0,"skunk","right","right",496.024509193,1,0
"MWP501",1,188,"elephant","valid",-0.5,-0.333333333333333,"nomask",-0.5,-0.666666666666667,0,"elephant","right","right",416.019876953,1,0
"MWP501",1,189,"noise","noise",0,0.666666666666667,"nomask",-0.5,-0.666666666666667,0,"skunk","right","right",461.950043449,1,0
"MWP501",1,190,"penguin","valid",-0.5,-0.333333333333333,"nomask",-0.5,-0.666666666666667,0,"penguin","left","left",347.350004362,1,0
"MWP501",1,191,"rabbit","valid",-0.5,-0.333333333333333,"nomask",-0.5,-0.666666666666667,0,"rabbit","right","right",325.325032696,1,0
"MWP501",1,192,"noise","noise",0,0.666666666666667,"during",0.5,0.333333333333333,-0.5,"gorilla","left","left",452.378919115,1,0
"MWP501",1,193,"gorilla","valid",-0.5,-0.333333333333333,"during",0.5,0.333333333333333,-0.5,"gorilla","right","right",507.337043062,1,0
"MWP501",1,194,"noise","noise",0,0.666666666666667,"during",0.5,0.333333333333333,-0.5,"donkey","left","left",361.638063798,1,0
"MWP501",1,195,"leopard","valid",-0.5,-0.333333333333333,"nomask",-0.5,-0.666666666666667,0,"leopard","left","left",370.6636813,1,0
"MWP501",1,196,"noise","noise",0,0.666666666666667,"after",0.5,0.333333333333333,0.5,"elephant","left","left",321.658558212,1,0
"MWP501",1,197,"rabbit","valid",-0.5,-0.333333333333333,"nomask",-0.5,-0.666666666666667,0,"rabbit","right","right",343.181305099,1,0
"MWP501",1,198,"chair","valid",-0.5,-0.333333333333333,"during",0.5,0.333333333333333,-0.5,"chair","left","left",334.873541025,1,0
"MWP501",1,199,"noise","noise",0,0.666666666666667,"after",0.5,0.333333333333333,0.5,"raccoon","right","right",346.134994645,1,0
"MWP501",1,200,"noise","noise",0,0.666666666666667,"nomask",-0.5,-0.666666666666667,0,"skunk","right","right",406.635527266,1,0
"MWP501",1,201,"noise","noise",0,0.666666666666667,"during",0.5,0.333333333333333,-0.5,"gorilla","right","right",366.062944056,1,0
"MWP501",1,202,"noise","noise",0,0.666666666666667,"nomask",-0.5,-0.666666666666667,0,"leopard","left","left",349.184606224,1,0
"MWP501",1,203,"chair","valid",-0.5,-0.333333333333333,"nomask",-0.5,-0.666666666666667,0,"chair","left","left",346.257821424,1,0
"MWP501",1,204,"noise","noise",0,0.666666666666667,"after",0.5,0.333333333333333,0.5,"leopard","left","left",473.208377603,1,0
"MWP501",1,205,"chicken","valid",-0.5,-0.333333333333333,"during",0.5,0.333333333333333,-0.5,"chicken","left","left",369.142190088,1,0
"MWP501",1,206,"noise","noise",0,0.666666666666667,"nomask",-0.5,-0.666666666666667,0,"rabbit","right","right",336.615340784,1,0
"MWP501",1,207,"noise","noise",0,0.666666666666667,"after",0.5,0.333333333333333,0.5,"chair","right","left",NA,0,1
"MWP501",1,208,"noise","noise",0,0.666666666666667,"nomask",-0.5,-0.666666666666667,0,"chicken","right","right",367.172283819,1,0
"MWP501",1,209,"noise","noise",0,0.666666666666667,"during",0.5,0.333333333333333,-0.5,"skunk","left","right",NA,0,1
"MWP501",1,210,"raccoon","valid",-0.5,-0.333333333333333,"after",0.5,0.333333333333333,0.5,"raccoon","left","left",370.462089544,1,0
"MWP501",1,211,"gorilla","invalid",0.5,-0.333333333333333,"nomask",-0.5,-0.666666666666667,0,"leopard","right","right",497.753831092,1,0
"MWP501",1,212,"noise","noise",0,0.666666666666667,"nomask",-0.5,-0.666666666666667,0,"chair","left","left",512.497324031,1,0
"MWP501",1,213,"donkey","valid",-0.5,-0.333333333333333,"after",0.5,0.333333333333333,0.5,"donkey","right","right",326.823128387,1,0
"MWP501",2,214,"noise","noise",0,0.666666666666667,"during",0.5,0.333333333333333,-0.5,"rabbit","left","left",390.583832283,1,0
"MWP501",2,215,"noise","noise",0,0.666666666666667,"during",0.5,0.333333333333333,-0.5,"chicken","left","left",350.259632105,1,0
"MWP501",2,216,"noise","noise",0,0.666666666666667,"after",0.5,0.333333333333333,0.5,"gorilla","right","right",422.006411012,1,0
"MWP501",2,217,"noise","noise",0,0.666666666666667,"nomask",-0.5,-0.666666666666667,0,"leopard","right","right",316.203882918,1,0
"MWP501",2,218,"leopard","invalid",0.5,-0.333333333333333,"during",0.5,0.333333333333333,-0.5,"skunk","right","right",475.988550112,1,0
"MWP501",2,219,"noise","noise",0,0.666666666666667,"nomask",-0.5,-0.666666666666667,0,"gorilla","right","right",346.876634052,1,0
"MWP501",2,220,"noise","noise",0,0.666666666666667,"after",0.5,0.333333333333333,0.5,"chair","left","left",410.57962901,1,0
"MWP501",2,221,"gorilla","invalid",0.5,-0.333333333333333,"after",0.5,0.333333333333333,0.5,"raccoon","left","left",510.024023475,1,0
"MWP501",2,222,"leopard","invalid",0.5,-0.333333333333333,"nomask",-0.5,-0.666666666666667,0,"gorilla","left","left",450.443716254,1,0
"MWP501",2,223,"chair","valid",-0.5,-0.333333333333333,"nomask",-0.5,-0.666666666666667,0,"chair","left","left",380.840750877,1,0
"MWP501",2,224,"noise","noise",0,0.666666666666667,"nomask",-0.5,-0.666666666666667,0,"leopard","right","right",427.283670055,1,0
"MWP501",2,225,"noise","noise",0,0.666666666666667,"nomask",-0.5,-0.666666666666667,0,"donkey","right","right",346.362321405,1,0
"MWP501",2,226,"noise","noise",0,0.666666666666667,"nomask",-0.5,-0.666666666666667,0,"chicken","left","left",321.48972014,1,0
"MWP501",2,227,"gorilla","valid",-0.5,-0.333333333333333,"after",0.5,0.333333333333333,0.5,"gorilla","left","left",420.785942581,1,0
"MWP501",2,228,"noise","noise",0,0.666666666666667,"during",0.5,0.333333333333333,-0.5,"chicken","right","right",484.507264337,1,0
"MWP501",2,229,"noise","noise",0,0.666666666666667,"after",0.5,0.333333333333333,0.5,"penguin","right","right",379.991491791,1,0
"MWP501",2,230,"noise","noise",0,0.666666666666667,"after",0.5,0.333333333333333,0.5,"leopard","right","right",369.947777363,1,0
"MWP501",2,231,"noise","noise",0,0.666666666666667,"nomask",-0.5,-0.666666666666667,0,"chicken","left","left",440.956036095,1,0
"MWP501",2,232,"noise","noise",0,0.666666666666667,"after",0.5,0.333333333333333,0.5,"skunk","right","right",327.558139106,1,0
"MWP501",2,233,"chair","invalid",0.5,-0.333333333333333,"nomask",-0.5,-0.666666666666667,0,"rabbit","right","right",541.809623362,1,0
"MWP501",2,234,"noise","noise",0,0.666666666666667,"during",0.5,0.333333333333333,-0.5,"donkey","right","right",405.211517354,1,0
"MWP501",2,235,"leopard","invalid",0.5,-0.333333333333333,"nomask",-0.5,-0.666666666666667,0,"raccoon","right","right",323.886205675,1,0
"MWP501",2,236,"noise","noise",0,0.666666666666667,"after",0.5,0.333333333333333,0.5,"donkey","left","left",427.359315567,1,0
"MWP501",2,237,"noise","noise",0,0.666666666666667,"after",0.5,0.333333333333333,0.5,"leopard","right","right",322.563576279,1,0
"MWP501",2,238,"rabbit","valid",-0.5,-0.333333333333333,"during",0.5,0.333333333333333,-0.5,"rabbit","left","left",336.272985674,1,0
"MWP501",2,239,"leopard","valid",-0.5,-0.333333333333333,"nomask",-0.5,-0.666666666666667,0,"leopard","left","left",399.985728785,1,0
"MWP501",2,240,"raccoon","valid",-0.5,-0.333333333333333,"nomask",-0.5,-0.666666666666667,0,"raccoon","left","left",388.269621413,1,0
"MWP501",2,241,"penguin","valid",-0.5,-0.333333333333333,"nomask",-0.5,-0.666666666666667,0,"penguin","right","right",382.460893365,1,0
"MWP501",2,242,"noise","noise",0,0.666666666666667,"after",0.5,0.333333333333333,0.5,"gorilla","left","left",358.026178787,1,0
"MWP501",2,243,"noise","noise",0,0.666666666666667,"nomask",-0.5,-0.666666666666667,0,"rabbit","right","right",349.118708633,1,0
"MWP501",2,244,"noise","noise",0,0.666666666666667,"nomask",-0.5,-0.666666666666667,0,"penguin","right","right",316.180097638,1,0
"MWP501",2,245,"penguin","invalid",0.5,-0.333333333333333,"nomask",-0.5,-0.666666666666667,0,"skunk","left","left",571.831197711,1,0
"MWP501",2,246,"chicken","valid",-0.5,-0.333333333333333,"after",0.5,0.333333333333333,0.5,"chicken","right","right",369.382774225,1,0
"MWP501",2,247,"noise","noise",0,0.666666666666667,"during",0.5,0.333333333333333,-0.5,"raccoon","left","left",304.713152815,1,0
"MWP501",2,248,"rabbit","valid",-0.5,-0.333333333333333,"nomask",-0.5,-0.666666666666667,0,"rabbit","right","right",409.773651743,1,0
"MWP501",2,249,"gorilla","valid",-0.5,-0.333333333333333,"during",0.5,0.333333333333333,-0.5,"gorilla","right","right",322.264893213,1,0
"MWP501",2,250,"noise","noise",0,0.666666666666667,"nomask",-0.5,-0.666666666666667,0,"leopard","right","right",529.188887449,1,0
"MWP501",2,251,"penguin","valid",-0.5,-0.333333333333333,"during",0.5,0.333333333333333,-0.5,"penguin","right","right",342.400673078,1,0
"MWP501",2,252,"noise","noise",0,0.666666666666667,"during",0.5,0.333333333333333,-0.5,"gorilla","right","right",508.65031383,1,0
"MWP501",2,253,"noise","noise",0,0.666666666666667,"nomask",-0.5,-0.666666666666667,0,"rabbit","left","left",451.466492377,1,0
"MWP501",2,254,"noise","noise",0,0.666666666666667,"after",0.5,0.333333333333333,0.5,"chicken","left","left",345.964207081,1,0
"MWP501",2,255,"chair","valid",-0.5,-0.333333333333333,"during",0.5,0.333333333333333,-0.5,"chair","right","right",361.609988846,1,0
"MWP501",2,256,"leopard","valid",-0.5,-0.333333333333333,"after",0.5,0.333333333333333,0.5,"leopard","right","right",409.558412619,1,0
"MWP501",2,257,"noise","noise",0,0.666666666666667,"during",0.5,0.333333333333333,-0.5,"elephant","left","left",345.438196789,1,0
"MWP501",2,258,"chair","valid",-0.5,-0.333333333333333,"nomask",-0.5,-0.666666666666667,0,"chair","right","right",369.934519753,1,0
"MWP501",2,259,"skunk","valid",-0.5,-0.333333333333333,"nomask",-0.5,-0.666666666666667,0,"skunk","left","left",589.261671063,1,0
"MWP501",2,260,"elephant","valid",-0.5,-0.333333333333333,"nomask",-0.5,-0.666666666666667,0,"elephant","right","right",367.920941673,1,0
"MWP501",2,261,"noise","noise",0,0.666666666666667,"during",0.5,0.333333333333333,-0.5,"leopard","left","left",477.616881253,1,0
"MWP501",2,262,"noise","noise",0,0.666666666666667,"nomask",-0.5,-0.666666666666667,0,"rabbit","left","left",507.808073889,1,0
"MWP501",2,263,"noise","noise",0,0.666666666666667,"during",0.5,0.333333333333333,-0.5,"elephant","right","right",347.122677369,1,0
"MWP501",2,264,"noise","noise",0,0.666666666666667,"nomask",-0.5,-0.666666666666667,0,"chicken","left","left",376.608493505,1,0
"MWP501",2,265,"donkey","valid",-0.5,-0.333333333333333,"after",0.5,0.333333333333333,0.5,"donkey","left","left",334.215346025,1,0
"MWP501",2,266,"raccoon","valid",-0.5,-0.333333333333333,"after",0.5,0.333333333333333,0.5,"raccoon","right","right",412.669632584,1,0
"MWP501",2,267,"skunk","valid",-0.5,-0.333333333333333,"during",0.5,0.333333333333333,-0.5,"skunk","right","right",390.627504094,1,0
"MWP501",2,268,"gorilla","valid",-0.5,-0.333333333333333,"after",0.5,0.333333333333333,0.5,"gorilla","left","left",336.751034949,1,0
"MWP501",2,269,"raccoon","invalid",0.5,-0.333333333333333,"during",0.5,0.333333333333333,-0.5,"donkey","right","right",340.35590128,1,0
"MWP501",2,270,"leopard","valid",-0.5,-0.333333333333333,"nomask",-0.5,-0.666666666666667,0,"leopard","right","right",336.875811452,1,0
"MWP501",2,271,"noise","noise",0,0.666666666666667,"after",0.5,0.333333333333333,0.5,"raccoon","right","right",304.653494386,1,0
"MWP501",2,272,"rabbit","valid",-0.5,-0.333333333333333,"nomask",-0.5,-0.666666666666667,0,"rabbit","left","left",552.940061549,1,0
"MWP501",2,273,"noise","noise",0,0.666666666666667,"nomask",-0.5,-0.666666666666667,0,"chair","left","timeout",NA,NA,NA
"MWP501",2,274,"leopard","invalid",0.5,-0.333333333333333,"nomask",-0.5,-0.666666666666667,0,"elephant","left","left",387.089315336,1,0
"MWP501",2,275,"raccoon","valid",-0.5,-0.333333333333333,"during",0.5,0.333333333333333,-0.5,"raccoon","right","right",320.514125284,1,0
"MWP501",2,276,"noise","noise",0,0.666666666666667,"nomask",-0.5,-0.666666666666667,0,"skunk","left","left",376.119526569,1,0
"MWP501",2,277,"elephant","valid",-0.5,-0.333333333333333,"during",0.5,0.333333333333333,-0.5,"elephant","left","left",359.909911407,1,0
"MWP501",2,278,"chicken","valid",-0.5,-0.333333333333333,"during",0.5,0.333333333333333,-0.5,"chicken","left","left",406.796566676,1,0
"MWP501",2,279,"elephant","valid",-0.5,-0.333333333333333,"nomask",-0.5,-0.666666666666667,0,"elephant","left","left",687.745287782,1,0
"MWP501",2,280,"gorilla","valid",-0.5,-0.333333333333333,"nomask",-0.5,-0.666666666666667,0,"gorilla","right","right",331.085799728,1,0
"MWP501",2,281,"penguin","invalid",0.5,-0.333333333333333,"during",0.5,0.333333333333333,-0.5,"chicken","right","right",391.628833953,1,0
"MWP501",2,282,"noise","noise",0,0.666666666666667,"nomask",-0.5,-0.666666666666667,0,"raccoon","left","left",425.051343627,1,0
"MWP501",2,283,"noise","noise",0,0.666666666666667,"after",0.5,0.333333333333333,0.5,"penguin","right","right",317.372881109,1,0
"MWP501",2,284,"donkey","valid",-0.5,-0.333333333333333,"during",0.5,0.333333333333333,-0.5,"donkey","right","right",357.055262895,1,0
"MWP501",2,285,"penguin","invalid",0.5,-0.333333333333333,"nomask",-0.5,-0.666666666666667,0,"chair","right","right",331.092818175,1,0
"MWP501",2,286,"noise","noise",0,0.666666666666667,"nomask",-0.5,-0.666666666666667,0,"skunk","left","left",497.282800497,1,0
"MWP501",2,287,"noise","noise",0,0.666666666666667,"nomask",-0.5,-0.666666666666667,0,"elephant","right","right",311.683080625,1,0
"MWP501",2,288,"noise","noise",0,0.666666666666667,"during",0.5,0.333333333333333,-0.5,"skunk","left","left",333.925630897,1,0
"MWP501",2,289,"chicken","invalid",0.5,-0.333333333333333,"after",0.5,0.333333333333333,0.5,"rabbit","right","right",404.205118073,1,0
"MWP501",2,290,"noise","noise",0,0.666666666666667,"nomask",-0.5,-0.666666666666667,0,"gorilla","left","left",451.173267793,1,0
"MWP501",2,291,"skunk","valid",-0.5,-0.333333333333333,"after",0.5,0.333333333333333,0.5,"skunk","right","right",478.064126568,1,0
"MWP501",2,292,"elephant","valid",-0.5,-0.333333333333333,"after",0.5,0.333333333333333,0.5,"elephant","right","right",346.468771342,1,0
"MWP501",2,293,"noise","noise",0,0.666666666666667,"nomask",-0.5,-0.666666666666667,0,"raccoon","right","right",339.417739073,1,0
"MWP501",2,294,"raccoon","invalid",0.5,-0.333333333333333,"after",0.5,0.333333333333333,0.5,"leopard","left","left",464.490411337,1,0
"MWP501",2,295,"donkey","valid",-0.5,-0.333333333333333,"nomask",-0.5,-0.666666666666667,0,"donkey","right","right",320.308634313,1,0
"MWP501",2,296,"penguin","valid",-0.5,-0.333333333333333,"nomask",-0.5,-0.666666666666667,0,"penguin","left","right",NA,0,1
"MWP501",2,297,"noise","noise",0,0.666666666666667,"nomask",-0.5,-0.666666666666667,0,"donkey","right","right",320.579632884,1,0
"MWP501",2,298,"noise","noise",0,0.666666666666667,"nomask",-0.5,-0.666666666666667,0,"elephant","left","left",392.262463924,1,0
"MWP501",2,299,"noise","noise",0,0.666666666666667,"during",0.5,0.333333333333333,-0.5,"chair","right","right",416.02338641,1,0
"MWP501",2,300,"leopard","valid",-0.5,-0.333333333333333,"during",0.5,0.333333333333333,-0.5,"leopard","right","right",318.335218588,1,0
"MWP501",2,301,"penguin","valid",-0.5,-0.333333333333333,"nomask",-0.5,-0.666666666666667,0,"penguin","right","right",353.382939706,1,0
"MWP501",2,302,"noise","noise",0,0.666666666666667,"during",0.5,0.333333333333333,-0.5,"donkey","right","right",265.09042969,1,0
"MWP501",2,303,"noise","noise",0,0.666666666666667,"nomask",-0.5,-0.666666666666667,0,"chair","left","left",607.764051063,1,0
"MWP501",2,304,"noise","noise",0,0.666666666666667,"after",0.5,0.333333333333333,0.5,"rabbit","right","right",311.776662711,1,0
"MWP501",2,305,"noise","noise",0,0.666666666666667,"during",0.5,0.333333333333333,-0.5,"chair","left","left",390.473483363,1,0
"MWP501",2,306,"rabbit","valid",-0.5,-0.333333333333333,"during",0.5,0.333333333333333,-0.5,"rabbit","left","left",328.187479405,1,0
"MWP501",2,307,"leopard","invalid",0.5,-0.333333333333333,"after",0.5,0.333333333333333,0.5,"gorilla","right","right",367.86713195,1,0
"MWP501",2,308,"donkey","valid",-0.5,-0.333333333333333,"nomask",-0.5,-0.666666666666667,0,"donkey","right","right",337.626808789,1,0
"MWP501",2,309,"leopard","invalid",0.5,-0.333333333333333,"nomask",-0.5,-0.666666666666667,0,"penguin","left","left",368.119803956,1,0
"MWP501",2,310,"chicken","valid",-0.5,-0.333333333333333,"nomask",-0.5,-0.666666666666667,0,"chicken","left","left",399.037818657,1,0
"MWP501",2,311,"chicken","invalid",0.5,-0.333333333333333,"during",0.5,0.333333333333333,-0.5,"chair","left","left",373.533537146,1,0
"MWP501",2,312,"noise","noise",0,0.666666666666667,"nomask",-0.5,-0.666666666666667,0,"chair","right","right",364.716139622,1,0
"MWP501",2,313,"noise","noise",0,0.666666666666667,"during",0.5,0.333333333333333,-0.5,"penguin","right","right",401.87219088,1,0
"MWP501",2,314,"noise","noise",0,0.666666666666667,"nomask",-0.5,-0.666666666666667,0,"raccoon","right","left",NA,0,1
"MWP501",2,315,"noise","noise",0,0.666666666666667,"nomask",-0.5,-0.666666666666667,0,"skunk","right","right",421.122838976,1,0
"MWP501",2,316,"noise","noise",0,0.666666666666667,"after",0.5,0.333333333333333,0.5,"elephant","left","left",357.985626673,1,0
"MWP501",2,317,"raccoon","valid",-0.5,-0.333333333333333,"nomask",-0.5,-0.666666666666667,0,"raccoon","right","right",291.803871747,1,0
"MWP501",2,318,"noise","noise",0,0.666666666666667,"nomask",-0.5,-0.666666666666667,0,"penguin","left","left",338.741217507,1,0
"MWP501",2,319,"noise","noise",0,0.666666666666667,"nomask",-0.5,-0.666666666666667,0,"donkey","left","left",329.477354884,1,0
"MWP502",0,0,"tiger","valid",-0.5,-0.333333333333333,"after",0.5,0.333333333333333,0.5,"tiger","right","timeout",NA,NA,NA
"MWP502",0,1,"deer","valid",-0.5,-0.333333333333333,"during",0.5,0.333333333333333,-0.5,"deer","right","timeout",NA,NA,NA
"MWP502",0,2,"strawberry","valid",-0.5,-0.333333333333333,"after",0.5,0.333333333333333,0.5,"strawberry","left","left",322.731865104,1,0
"MWP502",0,3,"tomato","valid",-0.5,-0.333333333333333,"after",0.5,0.333333333333333,0.5,"tomato","right","timeout",NA,NA,NA
"MWP502",0,4,"noise","noise",0,0.666666666666667,"nomask",-0.5,-0.666666666666667,0,"wine_glass","right","timeout",NA,NA,NA
"MWP502",0,5,"noise","noise",0,0.666666666666667,"during",0.5,0.333333333333333,-0.5,"tomato","right","timeout",NA,NA,NA
"MWP502",0,6,"noise","noise",0,0.666666666666667,"after",0.5,0.333333333333333,0.5,"donkey","left","left",380.130956881,1,0
"MWP502",0,7,"noise","noise",0,0.666666666666667,"after",0.5,0.333333333333333,0.5,"pig","left","left",379.926691996,1,0
"MWP502",0,8,"noise","noise",0,0.666666666666667,"after",0.5,0.333333333333333,0.5,"strawberry","left","left",290.989069734,1,0
"MWP502",0,9,"donkey","valid",-0.5,-0.333333333333333,"after",0.5,0.333333333333333,0.5,"donkey","right","timeout",NA,NA,NA
"MWP502",0,10,"noise","noise",0,0.666666666666667,"during",0.5,0.333333333333333,-0.5,"wine_glass","right","timeout",NA,NA,NA
"MWP502",0,11,"noise","noise",0,0.666666666666667,"during",0.5,0.333333333333333,-0.5,"strawberry","left","left",467.852159403,1,0
"MWP502",0,12,"tiger","valid",-0.5,-0.333333333333333,"during",0.5,0.333333333333333,-0.5,"tiger","right","left",NA,0,1
"MWP502",0,13,"pig","invalid",0.5,-0.333333333333333,"after",0.5,0.333333333333333,0.5,"tree","right","left",NA,0,1
"MWP502",0,14,"noise","noise",0,0.666666666666667,"after",0.5,0.333333333333333,0.5,"elephant","right","left",NA,0,1
"MWP502",0,15,"pig","valid",-0.5,-0.333333333333333,"nomask",-0.5,-0.666666666666667,0,"pig","right","left",NA,0,1
"MWP502",0,16,"strawberry","valid",-0.5,-0.333333333333333,"nomask",-0.5,-0.666666666666667,0,"strawberry","left","timeout",NA,NA,NA
"MWP502",0,17,"noise","noise",0,0.666666666666667,"during",0.5,0.333333333333333,-0.5,"deer","right","timeout",NA,NA,NA
"MWP502",0,18,"tomato","valid",-0.5,-0.333333333333333,"nomask",-0.5,-0.666666666666667,0,"tomato","left","left",375.803627307,1,0
"MWP502",0,19,"donkey","invalid",0.5,-0.333333333333333,"nomask",-0.5,-0.666666666666667,0,"tiger","left","timeout",NA,NA,NA
"MWP502",0,20,"noise","noise",0,0.666666666666667,"nomask",-0.5,-0.666666666666667,0,"donkey","left","left",319.24469769,1,0
"MWP502",0,21,"wine_glass","invalid",0.5,-0.333333333333333,"nomask",-0.5,-0.666666666666667,0,"gorilla","left","left",1341.55354812,1,0
"MWP502",0,22,"noise","noise",0,0.666666666666667,"after",0.5,0.333333333333333,0.5,"wine_glass","right","left",NA,0,1
"MWP502",0,23,"tomato","valid",-0.5,-0.333333333333333,"after",0.5,0.333333333333333,0.5,"tomato","right","left",NA,0,1
"MWP502",0,24,"deer","invalid",0.5,-0.333333333333333,"nomask",-0.5,-0.666666666666667,0,"elephant","left","left",641.287857201,1,0
"MWP502",0,25,"noise","noise",0,0.666666666666667,"nomask",-0.5,-0.666666666666667,0,"tree","right","left",NA,0,1
"MWP502",0,26,"tiger","invalid",0.5,-0.333333333333333,"after",0.5,0.333333333333333,0.5,"tomato","left","left",332.088431576,1,0
"MWP502",0,27,"wine_glass","valid",-0.5,-0.333333333333333,"after",0.5,0.333333333333333,0.5,"wine_glass","left","left",298.23001218,1,0
"MWP502",0,28,"noise","noise",0,0.666666666666667,"during",0.5,0.333333333333333,-0.5,"gorilla","left","left",1137.72936235,1,0
"MWP502",0,29,"tiger","valid",-0.5,-0.333333333333333,"nomask",-0.5,-0.666666666666667,0,"tiger","right","left",NA,0,1
"MWP502",0,30,"tree","valid",-0.5,-0.333333333333333,"nomask",-0.5,-0.666666666666667,0,"tree","left","left",250.993177062,1,0
"MWP502",0,31,"tomato","invalid",0.5,-0.333333333333333,"nomask",-0.5,-0.666666666666667,0,"pig","right","timeout",NA,NA,NA
"MWP502",0,32,"noise","noise",0,0.666666666666667,"nomask",-0.5,-0.666666666666667,0,"strawberry","right","left",NA,0,1
"MWP502",0,33,"noise","noise",0,0.666666666666667,"after",0.5,0.333333333333333,0.5,"gorilla","left","timeout",NA,NA,NA
"MWP502",0,34,"noise","noise",0,0.666666666666667,"during",0.5,0.333333333333333,-0.5,"donkey","right","timeout",NA,NA,NA
"MWP502",0,35,"noise","noise",0,0.666666666666667,"after",0.5,0.333333333333333,0.5,"tree","right","left",NA,0,1
"MWP502",0,36,"noise","noise",0,0.666666666666667,"nomask",-0.5,-0.666666666666667,0,"tomato","right","left",NA,0,1
"MWP502",0,37,"noise","noise",0,0.666666666666667,"nomask",-0.5,-0.666666666666667,0,"wine_glass","left","timeout",NA,NA,NA
"MWP502",0,38,"elephant","valid",-0.5,-0.333333333333333,"nomask",-0.5,-0.666666666666667,0,"elephant","left","left",362.032084493,1,0
"MWP502",0,39,"noise","noise",0,0.666666666666667,"nomask",-0.5,-0.666666666666667,0,"tiger","right","left",NA,0,1
"MWP502",0,40,"noise","noise",0,0.666666666666667,"nomask",-0.5,-0.666666666666667,0,"strawberry","left","timeout",NA,NA,NA
"MWP502",0,41,"gorilla","valid",-0.5,-0.333333333333333,"nomask",-0.5,-0.666666666666667,0,"gorilla","left","timeout",NA,NA,NA
"MWP502",0,42,"noise","noise",0,0.666666666666667,"nomask",-0.5,-0.666666666666667,0,"deer","left","timeout",NA,NA,NA
"MWP502",0,43,"pig","valid",-0.5,-0.333333333333333,"during",0.5,0.333333333333333,-0.5,"pig","right","timeout",NA,NA,NA
"MWP502",0,44,"tomato","invalid",0.5,-0.333333333333333,"nomask",-0.5,-0.666666666666667,0,"tree","left","timeout",NA,NA,NA
"MWP502",0,45,"elephant","valid",-0.5,-0.333333333333333,"during",0.5,0.333333333333333,-0.5,"elephant","right","left",NA,0,1
"MWP502",0,46,"noise","noise",0,0.666666666666667,"nomask",-0.5,-0.666666666666667,0,"tree","left","left",301.911542658,1,0
"MWP502",0,47,"noise","noise",0,0.666666666666667,"nomask",-0.5,-0.666666666666667,0,"elephant","left","timeout",NA,NA,NA
"MWP502",0,48,"elephant","invalid",0.5,-0.333333333333333,"nomask",-0.5,-0.666666666666667,0,"strawberry","right","timeout",NA,NA,NA
"MWP502",0,49,"noise","noise",0,0.666666666666667,"nomask",-0.5,-0.666666666666667,0,"tiger","left","timeout",NA,NA,NA
"MWP502",0,50,"noise","noise",0,0.666666666666667,"after",0.5,0.333333333333333,0.5,"deer","right","left",NA,0,1
"MWP502",0,51,"pig","valid",-0.5,-0.333333333333333,"nomask",-0.5,-0.666666666666667,0,"pig","right","timeout",NA,NA,NA
"MWP502",0,52,"tiger","valid",-0.5,-0.333333333333333,"nomask",-0.5,-0.666666666666667,0,"tiger","left","timeout",NA,NA,NA
"MWP502",0,53,"noise","noise",0,0.666666666666667,"nomask",-0.5,-0.666666666666667,0,"tomato","right","left",NA,0,1
"MWP502",0,54,"donkey","valid",-0.5,-0.333333333333333,"nomask",-0.5,-0.666666666666667,0,"donkey","left","timeout",NA,NA,NA
"MWP502",0,55,"noise","noise",0,0.666666666666667,"after",0.5,0.333333333333333,0.5,"tiger","left","left",268.763098866,1,0
"MWP502",0,56,"strawberry","valid",-0.5,-0.333333333333333,"nomask",-0.5,-0.666666666666667,0,"strawberry","right","left",NA,0,1
"MWP502",0,57,"noise","noise",0,0.666666666666667,"nomask",-0.5,-0.666666666666667,0,"tomato","right","timeout",NA,NA,NA
"MWP502",0,58,"noise","noise",0,0.666666666666667,"during",0.5,0.333333333333333,-0.5,"elephant","left","timeout",NA,NA,NA
"MWP502",0,59,"noise","noise",0,0.666666666666667,"nomask",-0.5,-0.666666666666667,0,"deer","right","timeout",NA,NA,NA
"MWP502",0,60,"noise","noise",0,0.666666666666667,"during",0.5,0.333333333333333,-0.5,"elephant","left","timeout",NA,NA,NA
"MWP502",0,61,"noise","noise",0,0.666666666666667,"nomask",-0.5,-0.666666666666667,0,"pig","left","timeout",NA,NA,NA
"MWP502",0,62,"noise","noise",0,0.666666666666667,"after",0.5,0.333333333333333,0.5,"gorilla","right","timeout",NA,NA,NA
"MWP502",0,63,"noise","noise",0,0.666666666666667,"nomask",-0.5,-0.666666666666667,0,"tree","right","left",NA,0,1
"MWP502",0,64,"noise","noise",0,0.666666666666667,"nomask",-0.5,-0.666666666666667,0,"pig","left","timeout",NA,NA,NA
"MWP502",0,65,"wine_glass","valid",-0.5,-0.333333333333333,"nomask",-0.5,-0.666666666666667,0,"wine_glass","left","left",370.149127906,1,0
"MWP502",0,66,"noise","noise",0,0.666666666666667,"nomask",-0.5,-0.666666666666667,0,"gorilla","right","timeout",NA,NA,NA
"MWP502",0,67,"noise","noise",0,0.666666666666667,"nomask",-0.5,-0.666666666666667,0,"tiger","right","timeout",NA,NA,NA
"MWP502",0,68,"deer","valid",-0.5,-0.333333333333333,"nomask",-0.5,-0.666666666666667,0,"deer","right","left",NA,0,1
"MWP502",0,69,"noise","noise",0,0.666666666666667,"after",0.5,0.333333333333333,0.5,"tomato","right","left",NA,0,1
"MWP502",0,70,"tree","valid",-0.5,-0.333333333333333,"during",0.5,0.333333333333333,-0.5,"tree","right","timeout",NA,NA,NA
"MWP502",0,71,"noise","noise",0,0.666666666666667,"after",0.5,0.333333333333333,0.5,"tree","left","left",241.275022039,1,0
"MWP502",0,72,"deer","valid",-0.5,-0.333333333333333,"after",0.5,0.333333333333333,0.5,"deer","right","left",NA,0,1
"MWP502",0,73,"donkey","valid",-0.5,-0.333333333333333,"nomask",-0.5,-0.666666666666667,0,"donkey","right","left",NA,0,1
"MWP502",0,74,"noise","noise",0,0.666666666666667,"during",0.5,0.333333333333333,-0.5,"pig","right","timeout",NA,NA,NA
"MWP502",0,75,"strawberry","invalid",0.5,-0.333333333333333,"after",0.5,0.333333333333333,0.5,"deer","right","left",NA,0,1
"MWP502",0,76,"wine_glass","valid",-0.5,-0.333333333333333,"during",0.5,0.333333333333333,-0.5,"wine_glass","right","timeout",NA,NA,NA
"MWP502",0,77,"tiger","valid",-0.5,-0.333333333333333,"during",0.5,0.333333333333333,-0.5,"tiger","left","left",218.193119857,1,0
"MWP502",0,78,"pig","valid",-0.5,-0.333333333333333,"nomask",-0.5,-0.666666666666667,0,"pig","left","timeout",NA,NA,NA
"MWP502",0,79,"noise","noise",0,0.666666666666667,"nomask",-0.5,-0.666666666666667,0,"donkey","left","left",246.306826128,1,0
"MWP502",0,80,"gorilla","valid",-0.5,-0.333333333333333,"nomask",-0.5,-0.666666666666667,0,"gorilla","right","left",NA,0,1
"MWP502",0,81,"strawberry","valid",-0.5,-0.333333333333333,"during",0.5,0.333333333333333,-0.5,"strawberry","right","timeout",NA,NA,NA
"MWP502",0,82,"tree","valid",-0.5,-0.333333333333333,"nomask",-0.5,-0.666666666666667,0,"tree","left","left",251.754860394,1,0
"MWP502",0,83,"noise","noise",0,0.666666666666667,"during",0.5,0.333333333333333,-0.5,"deer","left","timeout",NA,NA,NA
"MWP502",0,84,"noise","noise",0,0.666666666666667,"nomask",-0.5,-0.666666666666667,0,"elephant","right","timeout",NA,NA,NA
"MWP502",0,85,"gorilla","valid",-0.5,-0.333333333333333,"during",0.5,0.333333333333333,-0.5,"gorilla","right","timeout",NA,NA,NA
"MWP502",0,86,"elephant","valid",-0.5,-0.333333333333333,"after",0.5,0.333333333333333,0.5,"elephant","right","left",NA,0,1
"MWP502",0,87,"tomato","invalid",0.5,-0.333333333333333,"nomask",-0.5,-0.666666666666667,0,"strawberry","left","left",1257.20876246,1,0
"MWP502",0,88,"donkey","invalid",0.5,-0.333333333333333,"after",0.5,0.333333333333333,0.5,"wine_glass","right","left",NA,0,1
"MWP502",0,89,"gorilla","valid",-0.5,-0.333333333333333,"nomask",-0.5,-0.666666666666667,0,"gorilla","right","left",NA,0,1
"MWP502",0,90,"wine_glass","valid",-0.5,-0.333333333333333,"nomask",-0.5,-0.666666666666667,0,"wine_glass","left","left",447.694871807,1,0
"MWP502",0,91,"noise","noise",0,0.666666666666667,"nomask",-0.5,-0.666666666666667,0,"elephant","left","left",465.429588221,1,0
"MWP502",0,92,"noise","noise",0,0.666666666666667,"during",0.5,0.333333333333333,-0.5,"donkey","left","left",952.127634315,1,0
"MWP502",0,93,"noise","noise",0,0.666666666666667,"nomask",-0.5,-0.666666666666667,0,"gorilla","right","left",NA,0,1
"MWP502",0,94,"noise","noise",0,0.666666666666667,"nomask",-0.5,-0.666666666666667,0,"donkey","right","timeout",NA,NA,NA
"MWP502",0,95,"noise","noise",0,0.666666666666667,"during",0.5,0.333333333333333,-0.5,"tiger","left","timeout",NA,NA,NA
"MWP502",0,96,"noise","noise",0,0.666666666666667,"during",0.5,0.333333333333333,-0.5,"tomato","left","timeout",NA,NA,NA
"MWP502",0,97,"donkey","valid",-0.5,-0.333333333333333,"during",0.5,0.333333333333333,-0.5,"donkey","right","timeout",NA,NA,NA
"MWP502",0,98,"noise","noise",0,0.666666666666667,"after",0.5,0.333333333333333,0.5,"wine_glass","left","left",508.06771894,1,0
"MWP502",0,99,"elephant","valid",-0.5,-0.333333333333333,"nomask",-0.5,-0.666666666666667,0,"elephant","left","left",251.081923954,1,0
"MWP502",0,100,"noise","noise",0,0.666666666666667,"nomask",-0.5,-0.666666666666667,0,"pig","left","left",322.370643262,1,0
"MWP502",0,101,"tree","valid",-0.5,-0.333333333333333,"after",0.5,0.333333333333333,0.5,"tree","left","left",226.867215242,1,0
"MWP502",0,102,"noise","noise",0,0.666666666666667,"after",0.5,0.333333333333333,0.5,"tiger","right","left",NA,0,1
"MWP502",0,103,"donkey","valid",-0.5,-0.333333333333333,"during",0.5,0.333333333333333,-0.5,"donkey","left","timeout",NA,NA,NA
"MWP502",0,104,"pig","valid",-0.5,-0.333333333333333,"after",0.5,0.333333333333333,0.5,"pig","left","left",281.606832752,1,0
"MWP502",0,105,"deer","valid",-0.5,-0.333333333333333,"nomask",-0.5,-0.666666666666667,0,"deer","right","timeout",NA,NA,NA
"MWP502",1,106,"noise","noise",0,0.666666666666667,"nomask",-0.5,-0.666666666666667,0,"strawberry","left","left",254.256643821,1,0
"MWP502",1,107,"tree","invalid",0.5,-0.333333333333333,"during",0.5,0.333333333333333,-0.5,"elephant","left","timeout",NA,NA,NA
"MWP502",1,108,"tree","valid",-0.5,-0.333333333333333,"nomask",-0.5,-0.666666666666667,0,"tree","left","left",294.387490256,1,0
"MWP502",1,109,"deer","valid",-0.5,-0.333333333333333,"nomask",-0.5,-0.666666666666667,0,"deer","right","timeout",NA,NA,NA
"MWP502",1,110,"donkey","valid",-0.5,-0.333333333333333,"during",0.5,0.333333333333333,-0.5,"donkey","right","left",NA,0,1
"MWP502",1,111,"deer","invalid",0.5,-0.333333333333333,"after",0.5,0.333333333333333,0.5,"gorilla","left","left",321.976416046,1,0
"MWP502",1,112,"noise","noise",0,0.666666666666667,"nomask",-0.5,-0.666666666666667,0,"tree","right","timeout",NA,NA,NA
"MWP502",1,113,"noise","noise",0,0.666666666666667,"nomask",-0.5,-0.666666666666667,0,"tree","left","left",537.293328671,1,0
"MWP502",1,114,"noise","noise",0,0.666666666666667,"after",0.5,0.333333333333333,0.5,"donkey","right","timeout",NA,NA,NA
"MWP502",1,115,"noise","noise",0,0.666666666666667,"nomask",-0.5,-0.666666666666667,0,"elephant","right","timeout",NA,NA,NA
"MWP502",1,116,"noise","noise",0,0.666666666666667,"after",0.5,0.333333333333333,0.5,"gorilla","left","timeout",NA,NA,NA
"MWP502",1,117,"noise","noise",0,0.666666666666667,"after",0.5,0.333333333333333,0.5,"tomato","left","timeout",NA,NA,NA
"MWP502",1,118,"gorilla","valid",-0.5,-0.333333333333333,"nomask",-0.5,-0.666666666666667,0,"gorilla","right","left",NA,0,1
"MWP502",1,119,"noise","noise",0,0.666666666666667,"after",0.5,0.333333333333333,0.5,"pig","right","left",NA,0,1
"MWP502",1,120,"elephant","invalid",0.5,-0.333333333333333,"nomask",-0.5,-0.666666666666667,0,"tomato","left","timeout",NA,NA,NA
"MWP502",1,121,"noise","noise",0,0.666666666666667,"nomask",-0.5,-0.666666666666667,0,"pig","right","timeout",NA,NA,NA
"MWP502",1,122,"noise","noise",0,0.666666666666667,"nomask",-0.5,-0.666666666666667,0,"deer","right","timeout",NA,NA,NA
"MWP502",1,123,"wine_glass","invalid",0.5,-0.333333333333333,"during",0.5,0.333333333333333,-0.5,"tree","left","timeout",NA,NA,NA
"MWP502",1,124,"noise","noise",0,0.666666666666667,"during",0.5,0.333333333333333,-0.5,"tiger","right","left",NA,0,1
"MWP502",1,125,"noise","noise",0,0.666666666666667,"nomask",-0.5,-0.666666666666667,0,"tomato","left","timeout",NA,NA,NA
"MWP502",1,126,"noise","noise",0,0.666666666666667,"nomask",-0.5,-0.666666666666667,0,"tiger","right","timeout",NA,NA,NA
"MWP502",1,127,"noise","noise",0,0.666666666666667,"nomask",-0.5,-0.666666666666667,0,"strawberry","right","left",NA,0,1
"MWP502",1,128,"wine_glass","valid",-0.5,-0.333333333333333,"nomask",-0.5,-0.666666666666667,0,"wine_glass","right","timeout",NA,NA,NA
"MWP502",1,129,"noise","noise",0,0.666666666666667,"nomask",-0.5,-0.666666666666667,0,"tiger","left","timeout",NA,NA,NA
"MWP502",1,130,"tree","valid",-0.5,-0.333333333333333,"after",0.5,0.333333333333333,0.5,"tree","left","timeout",NA,NA,NA
"MWP502",1,131,"wine_glass","valid",-0.5,-0.333333333333333,"during",0.5,0.333333333333333,-0.5,"wine_glass","right","timeout",NA,NA,NA
"MWP502",1,132,"tiger","valid",-0.5,-0.333333333333333,"after",0.5,0.333333333333333,0.5,"tiger","left","timeout",NA,NA,NA
"MWP502",1,133,"deer","invalid",0.5,-0.333333333333333,"nomask",-0.5,-0.666666666666667,0,"wine_glass","right","timeout",NA,NA,NA
"MWP502",1,134,"noise","noise",0,0.666666666666667,"during",0.5,0.333333333333333,-0.5,"deer","right","left",NA,0,1
"MWP502",1,135,"noise","noise",0,0.666666666666667,"after",0.5,0.333333333333333,0.5,"strawberry","right","timeout",NA,NA,NA
"MWP503",0,0,"noise","noise",0,0.666666666666667,"nomask",-0.5,-0.666666666666667,0,"wine_glass","left","left",559.613347636,1,0
"MWP503",0,1,"noise","noise",0,0.666666666666667,"nomask",-0.5,-0.666666666666667,0,"skunk","left","left",598.547772272,1,0
"MWP503",0,2,"swan","valid",-0.5,-0.333333333333333,"during",0.5,0.333333333333333,-0.5,"swan","right","right",472.211639863,1,0
"MWP503",0,3,"noise","noise",0,0.666666666666667,"after",0.5,0.333333333333333,0.5,"saltshaker","left","left",422.838330385,1,0
"MWP503",0,4,"skunk","invalid",0.5,-0.333333333333333,"nomask",-0.5,-0.666666666666667,0,"rabbit","right","right",434.123929823,1,0
"MWP503",0,5,"noise","noise",0,0.666666666666667,"during",0.5,0.333333333333333,-0.5,"wine_glass","right","right",480.832388508,1,0
"MWP503",0,6,"noise","noise",0,0.666666666666667,"during",0.5,0.333333333333333,-0.5,"piano","left","left",398.898396525,1,0
"MWP503",0,7,"saltshaker","valid",-0.5,-0.333333333333333,"during",0.5,0.333333333333333,-0.5,"saltshaker","left","left",430.542406859,1,0
"MWP503",0,8,"skunk","valid",-0.5,-0.333333333333333,"during",0.5,0.333333333333333,-0.5,"skunk","right","left",NA,0,1
"MWP503",0,9,"noise","noise",0,0.666666666666667,"nomask",-0.5,-0.666666666666667,0,"saltshaker","right","right",488.883211161,1,0
"MWP503",0,10,"noise","noise",0,0.666666666666667,"during",0.5,0.333333333333333,-0.5,"tree","right","right",479.750327533,1,0
"MWP503",0,11,"saltshaker","invalid",0.5,-0.333333333333333,"after",0.5,0.333333333333333,0.5,"rhinoceros","right","right",472.381591098,1,0
"MWP503",0,12,"rabbit","valid",-0.5,-0.333333333333333,"after",0.5,0.333333333333333,0.5,"rabbit","left","left",469.676818815,1,0
"MWP503",0,13,"noise","noise",0,0.666666666666667,"after",0.5,0.333333333333333,0.5,"tomato","right","right",452.754693106,1,0
"MWP503",0,14,"noise","noise",0,0.666666666666667,"nomask",-0.5,-0.666666666666667,0,"piano","left","left",450.152195641,1,0
"MWP503",0,15,"noise","noise",0,0.666666666666667,"nomask",-0.5,-0.666666666666667,0,"wine_glass","right","right",440.947453491,1,0
"MWP503",0,16,"tree","valid",-0.5,-0.333333333333333,"during",0.5,0.333333333333333,-0.5,"tree","right","right",389.563244302,1,0
"MWP503",0,17,"piano","invalid",0.5,-0.333333333333333,"after",0.5,0.333333333333333,0.5,"skunk","left","right",NA,0,1
"MWP503",0,18,"noise","noise",0,0.666666666666667,"during",0.5,0.333333333333333,-0.5,"rabbit","right","right",471.293827053,1,0
"MWP503",0,19,"noise","noise",0,0.666666666666667,"nomask",-0.5,-0.666666666666667,0,"piano","left","left",510.057920357,1,0
"MWP503",0,20,"saltshaker","valid",-0.5,-0.333333333333333,"nomask",-0.5,-0.666666666666667,0,"saltshaker","right","right",482.271841378,1,0
"MWP503",0,21,"noise","noise",0,0.666666666666667,"after",0.5,0.333333333333333,0.5,"skunk","left","left",529.116413207,1,0
"MWP503",0,22,"noise","noise",0,0.666666666666667,"after",0.5,0.333333333333333,0.5,"giraffe","left","left",463.980220258,1,0
"MWP503",0,23,"wine_glass","valid",-0.5,-0.333333333333333,"nomask",-0.5,-0.666666666666667,0,"wine_glass","left","left",426.079950877,1,0
"MWP503",0,24,"noise","noise",0,0.666666666666667,"during",0.5,0.333333333333333,-0.5,"tomato","left","left",440.326580079,1,0
"MWP503",0,25,"rabbit","valid",-0.5,-0.333333333333333,"during",0.5,0.333333333333333,-0.5,"rabbit","left","left",422.995734843,1,0
"MWP503",0,26,"saltshaker","valid",-0.5,-0.333333333333333,"during",0.5,0.333333333333333,-0.5,"saltshaker","right","right",443.207006669,1,0
"MWP503",0,27,"noise","noise",0,0.666666666666667,"nomask",-0.5,-0.666666666666667,0,"wine_glass","right","right",560.742553906,1,0
"MWP503",0,28,"giraffe","valid",-0.5,-0.333333333333333,"nomask",-0.5,-0.666666666666667,0,"giraffe","left","left",367.409889703,1,0
"MWP503",0,29,"tree","valid",-0.5,-0.333333333333333,"nomask",-0.5,-0.666666666666667,0,"tree","right","right",463.459340623,1,0
"MWP503",0,30,"noise","noise",0,0.666666666666667,"during",0.5,0.333333333333333,-0.5,"saltshaker","right","right",443.924832158,1,0
"MWP503",0,31,"noise","noise",0,0.666666666666667,"nomask",-0.5,-0.666666666666667,0,"swan","right","right",467.58569614,1,0
"MWP503",0,32,"noise","noise",0,0.666666666666667,"nomask",-0.5,-0.666666666666667,0,"skunk","left","right",NA,0,1
"MWP503",0,33,"tomato","valid",-0.5,-0.333333333333333,"during",0.5,0.333333333333333,-0.5,"tomato","left","left",370.373961166,1,0
"MWP503",0,34,"noise","noise",0,0.666666666666667,"during",0.5,0.333333333333333,-0.5,"giraffe","left","left",432.4061675,1,0
"MWP503",0,35,"swan","valid",-0.5,-0.333333333333333,"nomask",-0.5,-0.666666666666667,0,"swan","right","right",450.086040189,1,0
"MWP503",0,36,"piano","invalid",0.5,-0.333333333333333,"during",0.5,0.333333333333333,-0.5,"wine_glass","left","left",560.722783208,1,0
"MWP503",0,37,"noise","noise",0,0.666666666666667,"nomask",-0.5,-0.666666666666667,0,"rhinoceros","right","right",502.756860224,1,0
"MWP503",0,38,"noise","noise",0,0.666666666666667,"nomask",-0.5,-0.666666666666667,0,"tomato","right","right",485.673908028,1,0
"MWP503",0,39,"rhinoceros","valid",-0.5,-0.333333333333333,"during",0.5,0.333333333333333,-0.5,"rhinoceros","right","right",415.345647372,1,0
"MWP503",0,40,"swan","valid",-0.5,-0.333333333333333,"during",0.5,0.333333333333333,-0.5,"swan","left","left",523.535396555,1,0
"MWP503",0,41,"noise","noise",0,0.666666666666667,"nomask",-0.5,-0.666666666666667,0,"rhinoceros","right","right",434.484743513,1,0
"MWP503",0,42,"tomato","invalid",0.5,-0.333333333333333,"nomask",-0.5,-0.666666666666667,0,"rabbit","left","left",560.548649752,1,0
"MWP503",0,43,"noise","noise",0,0.666666666666667,"nomask",-0.5,-0.666666666666667,0,"giraffe","left","left",421.609890764,1,0
"MWP503",0,44,"noise","noise",0,0.666666666666667,"nomask",-0.5,-0.666666666666667,0,"tree","right","right",451.68479858,1,0
"MWP503",0,45,"noise","noise",0,0.666666666666667,"nomask",-0.5,-0.666666666666667,0,"saltshaker","right","right",449.284189614,1,0
"MWP503",0,46,"rabbit","valid",-0.5,-0.333333333333333,"nomask",-0.5,-0.666666666666667,0,"rabbit","right","right",593.356084661,1,0
"MWP503",0,47,"noise","noise",0,0.666666666666667,"after",0.5,0.333333333333333,0.5,"rhinoceros","left","left",472.093776567,1,0
"MWP503",0,48,"piano","valid",-0.5,-0.333333333333333,"during",0.5,0.333333333333333,-0.5,"piano","left","left",435.743599432,1,0
"MWP503",0,49,"noise","noise",0,0.666666666666667,"during",0.5,0.333333333333333,-0.5,"rhinoceros","right","right",490.604775492,1,0
"MWP503",0,50,"noise","noise",0,0.666666666666667,"after",0.5,0.333333333333333,0.5,"wine_glass","left","left",480.737717589,1,0
"MWP503",0,51,"rhinoceros","invalid",0.5,-0.333333333333333,"nomask",-0.5,-0.666666666666667,0,"tree","right","right",453.797593014,1,0
"MWP503",0,52,"piano","valid",-0.5,-0.333333333333333,"after",0.5,0.333333333333333,0.5,"piano","left","left",452.554325457,1,0
"MWP503",0,53,"tomato","valid",-0.5,-0.333333333333333,"during",0.5,0.333333333333333,-0.5,"tomato","left","left",400.246600388,1,0
"MWP503",0,54,"tomato","invalid",0.5,-0.333333333333333,"nomask",-0.5,-0.666666666666667,0,"saltshaker","left","left",470.732645714,1,0
"MWP503",0,55,"noise","noise",0,0.666666666666667,"nomask",-0.5,-0.666666666666667,0,"giraffe","right","right",501.645903685,1,0
"MWP503",0,56,"skunk","valid",-0.5,-0.333333333333333,"after",0.5,0.333333333333333,0.5,"skunk","left","left",576.675768709,1,0
"MWP503",0,57,"noise","noise",0,0.666666666666667,"after",0.5,0.333333333333333,0.5,"piano","left","left",423.523458187,1,0
"MWP503",0,58,"swan","valid",-0.5,-0.333333333333333,"nomask",-0.5,-0.666666666666667,0,"swan","right","right",505.623599514,1,0
"MWP503",0,59,"noise","noise",0,0.666666666666667,"during",0.5,0.333333333333333,-0.5,"tree","left","left",383.687569527,1,0
"MWP503",0,60,"tomato","valid",-0.5,-0.333333333333333,"nomask",-0.5,-0.666666666666667,0,"tomato","right","left",NA,0,1
"MWP503",0,61,"noise","noise",0,0.666666666666667,"during",0.5,0.333333333333333,-0.5,"piano","left","left",410.482456209,1,0
"MWP503",0,62,"rabbit","valid",-0.5,-0.333333333333333,"nomask",-0.5,-0.666666666666667,0,"rabbit","right","right",410.698792315,1,0
"MWP503",0,63,"giraffe","valid",-0.5,-0.333333333333333,"nomask",-0.5,-0.666666666666667,0,"giraffe","left","left",364.144316409,1,0
"MWP503",0,64,"skunk","valid",-0.5,-0.333333333333333,"nomask",-0.5,-0.666666666666667,0,"skunk","right","right",502.643179148,1,0
"MWP503",0,65,"swan","valid",-0.5,-0.333333333333333,"nomask",-0.5,-0.666666666666667,0,"swan","left","left",368.914737715,1,0
"MWP503",0,66,"rhinoceros","valid",-0.5,-0.333333333333333,"nomask",-0.5,-0.666666666666667,0,"rhinoceros","left","left",396.149900858,1,0
"MWP503",0,67,"noise","noise",0,0.666666666666667,"during",0.5,0.333333333333333,-0.5,"swan","left","left",354.224790353,1,0
"MWP503",0,68,"piano","valid",-0.5,-0.333333333333333,"nomask",-0.5,-0.666666666666667,0,"piano","right","right",395.321435994,1,0
"MWP503",0,69,"giraffe","valid",-0.5,-0.333333333333333,"after",0.5,0.333333333333333,0.5,"giraffe","right","right",431.73510721,1,0
"MWP503",0,70,"rhinoceros","valid",-0.5,-0.333333333333333,"during",0.5,0.333333333333333,-0.5,"rhinoceros","left","left",401.829390205,1,0
"MWP503",0,71,"skunk","invalid",0.5,-0.333333333333333,"nomask",-0.5,-0.666666666666667,0,"wine_glass","left","left",477.122736746,1,0
"MWP503",0,72,"rhinoceros","valid",-0.5,-0.333333333333333,"after",0.5,0.333333333333333,0.5,"rhinoceros","left","left",377.023351379,1,0
"MWP503",0,73,"piano","invalid",0.5,-0.333333333333333,"nomask",-0.5,-0.666666666666667,0,"tomato","right","right",526.798308594,1,0
"MWP503",0,74,"noise","noise",0,0.666666666666667,"during",0.5,0.333333333333333,-0.5,"swan","left","left",516.686399234,1,0
"MWP503",0,75,"skunk","valid",-0.5,-0.333333333333333,"nomask",-0.5,-0.666666666666667,0,"skunk","left","left",336.136198253,1,0
"MWP503",0,76,"saltshaker","valid",-0.5,-0.333333333333333,"nomask",-0.5,-0.666666666666667,0,"saltshaker","right","right",393.158454681,1,0
"MWP503",0,77,"noise","noise",0,0.666666666666667,"nomask",-0.5,-0.666666666666667,0,"swan","right","right",398.953906377,1,0
"MWP503",0,78,"rabbit","invalid",0.5,-0.333333333333333,"after",0.5,0.333333333333333,0.5,"saltshaker","right","right",407.866651774,1,0
"MWP503",0,79,"piano","valid",-0.5,-0.333333333333333,"after",0.5,0.333333333333333,0.5,"piano","left","left",438.506162725,1,0
"MWP503",0,80,"noise","noise",0,0.666666666666667,"after",0.5,0.333333333333333,0.5,"rhinoceros","left","left",428.858482628,1,0
"MWP503",0,81,"noise","noise",0,0.666666666666667,"nomask",-0.5,-0.666666666666667,0,"tomato","right","right",411.675536889,1,0
"MWP503",0,82,"wine_glass","valid",-0.5,-0.333333333333333,"nomask",-0.5,-0.666666666666667,0,"wine_glass","right","right",433.186346432,1,0
"MWP503",0,83,"wine_glass","invalid",0.5,-0.333333333333333,"nomask",-0.5,-0.666666666666667,0,"swan","right","right",421.059735352,1,0
"MWP503",0,84,"noise","noise",0,0.666666666666667,"nomask",-0.5,-0.666666666666667,0,"tree","right","right",402.331639896,1,0
"MWP503",0,85,"noise","noise",0,0.666666666666667,"nomask",-0.5,-0.666666666666667,0,"swan","left","left",434.266886557,1,0
"MWP503",0,86,"tree","valid",-0.5,-0.333333333333333,"after",0.5,0.333333333333333,0.5,"tree","left","left",423.657670268,1,0
"MWP503",0,87,"tomato","valid",-0.5,-0.333333333333333,"nomask",-0.5,-0.666666666666667,0,"tomato","right","right",453.555403044,1,0
"MWP503",0,88,"tree","valid",-0.5,-0.333333333333333,"nomask",-0.5,-0.666666666666667,0,"tree","left","left",357.546633924,1,0
"MWP503",0,89,"noise","noise",0,0.666666666666667,"during",0.5,0.333333333333333,-0.5,"giraffe","left","left",387.672869372,1,0
"MWP503",0,90,"noise","noise",0,0.666666666666667,"after",0.5,0.333333333333333,0.5,"skunk","right","right",538.541293587,1,0
"MWP503",0,91,"noise","noise",0,0.666666666666667,"nomask",-0.5,-0.666666666666667,0,"saltshaker","left","left",416.396151413,1,0
"MWP503",0,92,"rhinoceros","valid",-0.5,-0.333333333333333,"nomask",-0.5,-0.666666666666667,0,"rhinoceros","left","left",360.69966678,1,0
"MWP503",0,93,"noise","noise",0,0.666666666666667,"nomask",-0.5,-0.666666666666667,0,"rabbit","left","left",422.941745957,1,0
"MWP503",0,94,"rhinoceros","invalid",0.5,-0.333333333333333,"during",0.5,0.333333333333333,-0.5,"piano","left","left",445.582141983,1,0
"MWP503",0,95,"noise","noise",0,0.666666666666667,"nomask",-0.5,-0.666666666666667,0,"tomato","left","left",352.278905571,1,0
"MWP503",0,96,"noise","noise",0,0.666666666666667,"nomask",-0.5,-0.666666666666667,0,"piano","left","left",328.92030396,1,0
"MWP503",0,97,"noise","noise",0,0.666666666666667,"during",0.5,0.333333333333333,-0.5,"skunk","left","left",332.583570853,1,0
"MWP503",0,98,"wine_glass","valid",-0.5,-0.333333333333333,"during",0.5,0.333333333333333,-0.5,"wine_glass","right","right",440.823126701,1,0
"MWP503",0,99,"noise","noise",0,0.666666666666667,"after",0.5,0.333333333333333,0.5,"rabbit","left","left",390.306543326,1,0
"MWP503",0,100,"giraffe","valid",-0.5,-0.333333333333333,"during",0.5,0.333333333333333,-0.5,"giraffe","right","right",390.949848806,1,0
"MWP503",0,101,"noise","noise",0,0.666666666666667,"nomask",-0.5,-0.666666666666667,0,"rabbit","right","right",381.044390379,1,0
"MWP503",0,102,"tomato","invalid",0.5,-0.333333333333333,"after",0.5,0.333333333333333,0.5,"giraffe","right","right",515.731326421,1,0
"MWP503",0,103,"wine_glass","valid",-0.5,-0.333333333333333,"during",0.5,0.333333333333333,-0.5,"wine_glass","left","left",522.805784945,1,0
"MWP503",0,104,"giraffe","invalid",0.5,-0.333333333333333,"during",0.5,0.333333333333333,-0.5,"tomato","right","right",458.684356883,1,0
"MWP503",0,105,"noise","noise",0,0.666666666666667,"after",0.5,0.333333333333333,0.5,"tree","right","right",425.528274616,1,0
"MWP503",1,106,"noise","noise",0,0.666666666666667,"nomask",-0.5,-0.666666666666667,0,"saltshaker","left","left",440.070702811,1,0
"MWP503",1,107,"tree","invalid",0.5,-0.333333333333333,"after",0.5,0.333333333333333,0.5,"piano","right","right",392.081336351,1,0
"MWP503",1,108,"noise","noise",0,0.666666666666667,"after",0.5,0.333333333333333,0.5,"wine_glass","left","left",398.936036741,1,0
"MWP503",1,109,"noise","noise",0,0.666666666666667,"nomask",-0.5,-0.666666666666667,0,"skunk","right","right",389.038942871,1,0
"MWP503",1,110,"giraffe","valid",-0.5,-0.333333333333333,"after",0.5,0.333333333333333,0.5,"giraffe","left","left",323.520264472,1,0
"MWP503",1,111,"noise","noise",0,0.666666666666667,"nomask",-0.5,-0.666666666666667,0,"skunk","right","right",395.125250565,1,0
"MWP503",1,112,"noise","noise",0,0.666666666666667,"nomask",-0.5,-0.666666666666667,0,"tree","left","left",320.437569404,1,0
"MWP503",1,113,"skunk","valid",-0.5,-0.333333333333333,"nomask",-0.5,-0.666666666666667,0,"skunk","right","right",417.178231291,1,0
"MWP503",1,114,"noise","noise",0,0.666666666666667,"nomask",-0.5,-0.666666666666667,0,"piano","right","right",381.102561601,1,0
"MWP503",1,115,"noise","noise",0,0.666666666666667,"during",0.5,0.333333333333333,-0.5,"wine_glass","right","right",419.456414529,1,0
"MWP503",1,116,"tree","valid",-0.5,-0.333333333333333,"nomask",-0.5,-0.666666666666667,0,"tree","right","right",353.137406521,1,0
"MWP503",1,117,"saltshaker","valid",-0.5,-0.333333333333333,"nomask",-0.5,-0.666666666666667,0,"saltshaker","right","right",361.731160665,1,0
"MWP503",1,118,"wine_glass","valid",-0.5,-0.333333333333333,"nomask",-0.5,-0.666666666666667,0,"wine_glass","left","left",338.596879505,1,0
"MWP503",1,119,"noise","noise",0,0.666666666666667,"during",0.5,0.333333333333333,-0.5,"rabbit","left","left",432.462437777,1,0
"MWP503",1,120,"noise","noise",0,0.666666666666667,"nomask",-0.5,-0.666666666666667,0,"rhinoceros","right","right",382.897505304,1,0
"MWP503",1,121,"noise","noise",0,0.666666666666667,"nomask",-0.5,-0.666666666666667,0,"saltshaker","right","right",372.342278017,1,0
"MWP503",1,122,"noise","noise",0,0.666666666666667,"after",0.5,0.333333333333333,0.5,"skunk","right","right",377.746119397,1,0
"MWP503",1,123,"noise","noise",0,0.666666666666667,"during",0.5,0.333333333333333,-0.5,"rabbit","right","right",511.340348865,1,0
"MWP503",1,124,"skunk","valid",-0.5,-0.333333333333333,"nomask",-0.5,-0.666666666666667,0,"skunk","left","left",457.215628237,1,0
"MWP503",1,125,"rhinoceros","valid",-0.5,-0.333333333333333,"after",0.5,0.333333333333333,0.5,"rhinoceros","right","right",450.881427154,1,0
"MWP503",1,126,"noise","noise",0,0.666666666666667,"after",0.5,0.333333333333333,0.5,"piano","right","right",392.387400614,1,0
"MWP503",1,127,"noise","noise",0,0.666666666666667,"after",0.5,0.333333333333333,0.5,"rhinoceros","right","right",421.094714082,1,0
"MWP503",1,128,"saltshaker","valid",-0.5,-0.333333333333333,"after",0.5,0.333333333333333,0.5,"saltshaker","left","left",337.292779237,1,0
"MWP503",1,129,"tomato","invalid",0.5,-0.333333333333333,"after",0.5,0.333333333333333,0.5,"swan","left","left",509.88872943,1,0
"MWP503",1,130,"tomato","valid",-0.5,-0.333333333333333,"nomask",-0.5,-0.666666666666667,0,"tomato","left","left",290.164195001,1,0
"MWP503",1,131,"tree","invalid",0.5,-0.333333333333333,"nomask",-0.5,-0.666666666666667,0,"piano","right","right",522.171984543,1,0
"MWP503",1,132,"noise","noise",0,0.666666666666667,"after",0.5,0.333333333333333,0.5,"saltshaker","right","right",401.928243344,1,0
"MWP503",1,133,"skunk","valid",-0.5,-0.333333333333333,"during",0.5,0.333333333333333,-0.5,"skunk","right","right",402.181839454,1,0
"MWP503",1,134,"tree","valid",-0.5,-0.333333333333333,"nomask",-0.5,-0.666666666666667,0,"tree","left","left",476.185913663,1,0
"MWP503",1,135,"noise","noise",0,0.666666666666667,"nomask",-0.5,-0.666666666666667,0,"tomato","left","left",354.97265181,1,0
"MWP503",1,136,"noise","noise",0,0.666666666666667,"nomask",-0.5,-0.666666666666667,0,"giraffe","right","right",343.604167923,1,0
"MWP503",1,137,"noise","noise",0,0.666666666666667,"nomask",-0.5,-0.666666666666667,0,"rabbit","right","right",606.495939777,1,0
"MWP503",1,138,"skunk","invalid",0.5,-0.333333333333333,"nomask",-0.5,-0.666666666666667,0,"rhinoceros","right","right",344.341003569,1,0
"MWP503",1,139,"noise","noise",0,0.666666666666667,"after",0.5,0.333333333333333,0.5,"tomato","left","left",412.413132843,1,0
"MWP503",1,140,"piano","invalid",0.5,-0.333333333333333,"during",0.5,0.333333333333333,-0.5,"rhinoceros","left","left",450.060566538,1,0
"MWP503",1,141,"giraffe","valid",-0.5,-0.333333333333333,"nomask",-0.5,-0.666666666666667,0,"giraffe","left","left",375.496451627,1,0
"MWP503",1,142,"rabbit","valid",-0.5,-0.333333333333333,"after",0.5,0.333333333333333,0.5,"rabbit","right","right",398.648602422,1,0
"MWP503",1,143,"rhinoceros","invalid",0.5,-0.333333333333333,"nomask",-0.5,-0.666666666666667,0,"skunk","right","right",464.880543645,1,0
"MWP503",1,144,"swan","valid",-0.5,-0.333333333333333,"nomask",-0.5,-0.666666666666667,0,"swan","left","left",355.409886688,1,0
"MWP503",1,145,"tree","valid",-0.5,-0.333333333333333,"during",0.5,0.333333333333333,-0.5,"tree","right","right",356.488145655,1,0
"MWP503",1,146,"tomato","valid",-0.5,-0.333333333333333,"after",0.5,0.333333333333333,0.5,"tomato","right","right",512.275651097,1,0
"MWP503",1,147,"noise","noise",0,0.666666666666667,"during",0.5,0.333333333333333,-0.5,"skunk","right","right",414.950615261,1,0
"MWP503",1,148,"noise","noise",0,0.666666666666667,"nomask",-0.5,-0.666666666666667,0,"swan","left","left",373.80340253,1,0
"MWP503",1,149,"saltshaker","valid",-0.5,-0.333333333333333,"nomask",-0.5,-0.666666666666667,0,"saltshaker","left","left",312.638822012,1,0
"MWP503",1,150,"piano","valid",-0.5,-0.333333333333333,"during",0.5,0.333333333333333,-0.5,"piano","right","right",377.717604046,1,0
"MWP503",1,151,"noise","noise",0,0.666666666666667,"during",0.5,0.333333333333333,-0.5,"wine_glass","left","right",NA,0,1
"MWP503",1,152,"noise","noise",0,0.666666666666667,"nomask",-0.5,-0.666666666666667,0,"giraffe","left","left",347.468562773,1,0
"MWP503",1,153,"rabbit","valid",-0.5,-0.333333333333333,"during",0.5,0.333333333333333,-0.5,"rabbit","left","left",353.100526729,1,0
"MWP503",1,154,"rabbit","invalid",0.5,-0.333333333333333,"after",0.5,0.333333333333333,0.5,"tree","right","right",401.425993652,1,0
"MWP503",1,155,"noise","noise",0,0.666666666666667,"during",0.5,0.333333333333333,-0.5,"saltshaker","left","left",367.033867864,1,0
"MWP503",1,156,"noise","noise",0,0.666666666666667,"nomask",-0.5,-0.666666666666667,0,"tomato","left","left",365.247288602,1,0
"MWP503",1,157,"noise","noise",0,0.666666666666667,"nomask",-0.5,-0.666666666666667,0,"swan","right","right",401.465915143,1,0
"MWP503",1,158,"saltshaker","invalid",0.5,-0.333333333333333,"during",0.5,0.333333333333333,-0.5,"rabbit","right","right",422.629978508,1,0
"MWP503",1,159,"saltshaker","invalid",0.5,-0.333333333333333,"after",0.5,0.333333333333333,0.5,"tomato","left","left",425.863994868,1,0
"MWP503",1,160,"noise","noise",0,0.666666666666667,"after",0.5,0.333333333333333,0.5,"saltshaker","right","right",431.760961073,1,0
"MWP503",1,161,"rhinoceros","valid",-0.5,-0.333333333333333,"nomask",-0.5,-0.666666666666667,0,"rhinoceros","right","right",352.00249718,1,0
"MWP503",1,162,"noise","noise",0,0.666666666666667,"during",0.5,0.333333333333333,-0.5,"skunk","right","right",422.867986257,1,0
"MWP503",1,163,"noise","noise",0,0.666666666666667,"after",0.5,0.333333333333333,0.5,"tree","left","left",403.500007233,1,0
"MWP503",1,164,"tree","invalid",0.5,-0.333333333333333,"nomask",-0.5,-0.666666666666667,0,"giraffe","left","left",408.030139632,1,0
"MWP503",1,165,"piano","valid",-0.5,-0.333333333333333,"nomask",-0.5,-0.666666666666667,0,"piano","left","left",374.692319776,1,0
"MWP503",1,166,"noise","noise",0,0.666666666666667,"after",0.5,0.333333333333333,0.5,"swan","left","left",347.373511759,1,0
"MWP503",1,167,"noise","noise",0,0.666666666666667,"after",0.5,0.333333333333333,0.5,"rabbit","right","right",433.799615712,1,0
"MWP503",1,168,"swan","valid",-0.5,-0.333333333333333,"during",0.5,0.333333333333333,-0.5,"swan","left","left",321.326486534,1,0
"MWP503",1,169,"noise","noise",0,0.666666666666667,"nomask",-0.5,-0.666666666666667,0,"rhinoceros","left","left",409.358572797,1,0
"MWP503",1,170,"wine_glass","valid",-0.5,-0.333333333333333,"after",0.5,0.333333333333333,0.5,"wine_glass","right","right",390.752903069,1,0
"MWP503",1,171,"piano","invalid",0.5,-0.333333333333333,"nomask",-0.5,-0.666666666666667,0,"tomato","left","left",375.215100474,1,0
"MWP503",1,172,"noise","noise",0,0.666666666666667,"nomask",-0.5,-0.666666666666667,0,"rabbit","left","left",333.767146221,1,0
"MWP503",1,173,"rhinoceros","valid",-0.5,-0.333333333333333,"after",0.5,0.333333333333333,0.5,"rhinoceros","right","right",342.954018852,1,0
"MWP503",1,174,"noise","noise",0,0.666666666666667,"after",0.5,0.333333333333333,0.5,"tree","left","left",341.82557289,1,0
"MWP503",1,175,"giraffe","valid",-0.5,-0.333333333333333,"after",0.5,0.333333333333333,0.5,"giraffe","left","left",354.45671482,1,0
"MWP503",1,176,"skunk","valid",-0.5,-0.333333333333333,"after",0.5,0.333333333333333,0.5,"skunk","left","right",NA,0,1
"MWP503",1,177,"saltshaker","valid",-0.5,-0.333333333333333,"nomask",-0.5,-0.666666666666667,0,"saltshaker","left","left",355.40456383,1,0
"MWP503",1,178,"rabbit","valid",-0.5,-0.333333333333333,"nomask",-0.5,-0.666666666666667,0,"rabbit","left","left",330.824746517,1,0
"MWP503",1,179,"tree","valid",-0.5,-0.333333333333333,"after",0.5,0.333333333333333,0.5,"tree","left","left",298.767834436,1,0
"MWP503",1,180,"noise","noise",0,0.666666666666667,"nomask",-0.5,-0.666666666666667,0,"skunk","right","right",431.467443472,1,0
"MWP503",1,181,"wine_glass","valid",-0.5,-0.333333333333333,"nomask",-0.5,-0.666666666666667,0,"wine_glass","right","right",387.692259741,1,0
"MWP503",1,182,"noise","noise",0,0.666666666666667,"during",0.5,0.333333333333333,-0.5,"piano","right","right",410.425425624,1,0
"MWP503",1,183,"rabbit","valid",-0.5,-0.333333333333333,"nomask",-0.5,-0.666666666666667,0,"rabbit","left","left",356.777100707,1,0
"MWP503",1,184,"swan","valid",-0.5,-0.333333333333333,"nomask",-0.5,-0.666666666666667,0,"swan","right","right",391.299256473,1,0
"MWP503",1,185,"noise","noise",0,0.666666666666667,"nomask",-0.5,-0.666666666666667,0,"giraffe","right","right",427.326640231,1,0
"MWP503",1,186,"noise","noise",0,0.666666666666667,"nomask",-0.5,-0.666666666666667,0,"tree","left","left",402.029377641,1,0
"MWP503",1,187,"tomato","valid",-0.5,-0.333333333333333,"during",0.5,0.333333333333333,-0.5,"tomato","right","left",NA,0,1
"MWP503",1,188,"noise","noise",0,0.666666666666667,"nomask",-0.5,-0.666666666666667,0,"tree","left","left",416.931478889,1,0
"MWP503",1,189,"tomato","valid",-0.5,-0.333333333333333,"after",0.5,0.333333333333333,0.5,"tomato","left","left",365.760564222,1,0
"MWP503",1,190,"noise","noise",0,0.666666666666667,"during",0.5,0.333333333333333,-0.5,"giraffe","right","right",379.700368736,1,0
"MWP503",1,191,"piano","valid",-0.5,-0.333333333333333,"during",0.5,0.333333333333333,-0.5,"piano","right","right",381.6960603,1,0
"MWP503",1,192,"swan","valid",-0.5,-0.333333333333333,"after",0.5,0.333333333333333,0.5,"swan","right","right",373.966129846,1,0
"MWP503",1,193,"noise","noise",0,0.666666666666667,"nomask",-0.5,-0.666666666666667,0,"piano","right","right",387.399882777,1,0
"MWP503",1,194,"noise","noise",0,0.666666666666667,"during",0.5,0.333333333333333,-0.5,"rhinoceros","left","left",514.280847739,1,0
"MWP503",1,195,"noise","noise",0,0.666666666666667,"nomask",-0.5,-0.666666666666667,0,"wine_glass","right","right",424.946182058,1,0
"MWP503",1,196,"noise","noise",0,0.666666666666667,"nomask",-0.5,-0.666666666666667,0,"rabbit","right","right",414.428214892,1,0
"MWP503",1,197,"wine_glass","valid",-0.5,-0.333333333333333,"after",0.5,0.333333333333333,0.5,"wine_glass","right","right",403.523579822,1,0
"MWP503",1,198,"noise","noise",0,0.666666666666667,"nomask",-0.5,-0.666666666666667,0,"piano","right","right",442.387666786,1,0
"MWP503",1,199,"noise","noise",0,0.666666666666667,"nomask",-0.5,-0.666666666666667,0,"tomato","right","right",560.613664682,1,0
"MWP503",1,200,"noise","noise",0,0.666666666666667,"after",0.5,0.333333333333333,0.5,"rhinoceros","right","right",423.464906751,1,0
"MWP503",1,201,"noise","noise",0,0.666666666666667,"during",0.5,0.333333333333333,-0.5,"saltshaker","right","right",476.939098211,1,0
"MWP503",1,202,"noise","noise",0,0.666666666666667,"during",0.5,0.333333333333333,-0.5,"swan","right","right",521.181933,1,0
"MWP503",1,203,"tomato","invalid",0.5,-0.333333333333333,"during",0.5,0.333333333333333,-0.5,"giraffe","left","left",478.512382833,1,0
"MWP503",1,204,"wine_glass","invalid",0.5,-0.333333333333333,"nomask",-0.5,-0.666666666666667,0,"tree","left","left",386.926908744,1,0
"MWP503",1,205,"noise","noise",0,0.666666666666667,"after",0.5,0.333333333333333,0.5,"giraffe","left","left",370.594479493,1,0
"MWP503",1,206,"piano","valid",-0.5,-0.333333333333333,"nomask",-0.5,-0.666666666666667,0,"piano","left","left",426.862030756,1,0
"MWP503",1,207,"noise","noise",0,0.666666666666667,"nomask",-0.5,-0.666666666666667,0,"wine_glass","right","right",424.524535774,1,0
"MWP503",1,208,"noise","noise",0,0.666666666666667,"after",0.5,0.333333333333333,0.5,"swan","left","left",365.968155558,1,0
"MWP503",1,209,"noise","noise",0,0.666666666666667,"during",0.5,0.333333333333333,-0.5,"tomato","left","left",396.33315918,1,0
"MWP503",1,210,"noise","noise",0,0.666666666666667,"nomask",-0.5,-0.666666666666667,0,"rhinoceros","left","left",361.56234995,1,0
"MWP503",1,211,"giraffe","invalid",0.5,-0.333333333333333,"nomask",-0.5,-0.666666666666667,0,"wine_glass","right","right",407.649555127,1,0
"MWP503",2,212,"noise","noise",0,0.666666666666667,"after",0.5,0.333333333333333,0.5,"saltshaker","left","left",353.245004313,1,0
"MWP503",2,213,"noise","noise",0,0.666666666666667,"during",0.5,0.333333333333333,-0.5,"wine_glass","left","left",384.080320364,1,0
"MWP503",2,214,"noise","noise",0,0.666666666666667,"nomask",-0.5,-0.666666666666667,0,"tree","right","right",421.126651345,1,0
"MWP503",2,215,"tree","invalid",0.5,-0.333333333333333,"during",0.5,0.333333333333333,-0.5,"saltshaker","left","right",NA,0,1
"MWP503",2,216,"noise","noise",0,0.666666666666667,"during",0.5,0.333333333333333,-0.5,"swan","right","right",495.66605303,1,0
"MWP503",2,217,"noise","noise",0,0.666666666666667,"after",0.5,0.333333333333333,0.5,"tree","right","right",421.74334242,1,0
"MWP503",2,218,"noise","noise",0,0.666666666666667,"nomask",-0.5,-0.666666666666667,0,"piano","right","right",395.221062121,1,0
"MWP503",2,219,"tomato","valid",-0.5,-0.333333333333333,"after",0.5,0.333333333333333,0.5,"tomato","right","left",NA,0,1
"MWP503",2,220,"noise","noise",0,0.666666666666667,"after",0.5,0.333333333333333,0.5,"piano","left","left",431.524474174,1,0
"MWP503",2,221,"noise","noise",0,0.666666666666667,"nomask",-0.5,-0.666666666666667,0,"swan","right","right",381.79301226,1,0
"MWP503",2,222,"tree","valid",-0.5,-0.333333333333333,"nomask",-0.5,-0.666666666666667,0,"tree","right","right",388.270169962,1,0
"MWP503",2,223,"noise","noise",0,0.666666666666667,"nomask",-0.5,-0.666666666666667,0,"piano","left","left",408.532769419,1,0
"MWP503",2,224,"noise","noise",0,0.666666666666667,"nomask",-0.5,-0.666666666666667,0,"rabbit","left","left",407.622560626,1,0
"MWP503",2,225,"rabbit","invalid",0.5,-0.333333333333333,"after",0.5,0.333333333333333,0.5,"wine_glass","right","right",411.90822178,1,0
"MWP503",2,226,"noise","noise",0,0.666666666666667,"nomask",-0.5,-0.666666666666667,0,"skunk","right","right",506.530386279,1,0
"MWP503",2,227,"rhinoceros","valid",-0.5,-0.333333333333333,"nomask",-0.5,-0.666666666666667,0,"rhinoceros","right","right",378.159021144,1,0
"MWP503",2,228,"giraffe","valid",-0.5,-0.333333333333333,"during",0.5,0.333333333333333,-0.5,"giraffe","left","left",340.959467925,1,0
"MWP503",2,229,"tree","valid",-0.5,-0.333333333333333,"after",0.5,0.333333333333333,0.5,"tree","right","right",379.717097618,1,0
"MWP503",2,230,"rabbit","invalid",0.5,-0.333333333333333,"nomask",-0.5,-0.666666666666667,0,"piano","left","left",384.153699852,1,0
"MWP503",2,231,"noise","noise",0,0.666666666666667,"nomask",-0.5,-0.666666666666667,0,"tree","left","left",357.615450979,1,0
"MWP503",2,232,"rabbit","valid",-0.5,-0.333333333333333,"during",0.5,0.333333333333333,-0.5,"rabbit","right","right",358.173590503,1,0
"MWP503",2,233,"noise","noise",0,0.666666666666667,"after",0.5,0.333333333333333,0.5,"giraffe","right","right",397.615968017,1,0
"MWP503",2,234,"noise","noise",0,0.666666666666667,"during",0.5,0.333333333333333,-0.5,"tomato","right","right",425.834719208,1,0
"MWP503",2,235,"giraffe","valid",-0.5,-0.333333333333333,"nomask",-0.5,-0.666666666666667,0,"giraffe","right","right",362.2581237,1,0
"MWP503",2,236,"noise","noise",0,0.666666666666667,"during",0.5,0.333333333333333,-0.5,"rhinoceros","right","right",367.989320774,1,0
"MWP503",2,237,"noise","noise",0,0.666666666666667,"nomask",-0.5,-0.666666666666667,0,"saltshaker","left","left",390.637701261,1,0
"MWP503",2,238,"rhinoceros","valid",-0.5,-0.333333333333333,"nomask",-0.5,-0.666666666666667,0,"rhinoceros","left","left",414.577254793,1,0
"MWP503",2,239,"noise","noise",0,0.666666666666667,"after",0.5,0.333333333333333,0.5,"rabbit","left","right",NA,0,1
"MWP503",2,240,"skunk","invalid",0.5,-0.333333333333333,"nomask",-0.5,-0.666666666666667,0,"saltshaker","right","right",497.584182885,1,0
"MWP503",2,241,"noise","noise",0,0.666666666666667,"nomask",-0.5,-0.666666666666667,0,"wine_glass","left","left",487.725109328,1,0
"MWP503",2,242,"noise","noise",0,0.666666666666667,"after",0.5,0.333333333333333,0.5,"piano","right","right",469.136168598,1,0
"MWP503",2,243,"noise","noise",0,0.666666666666667,"nomask",-0.5,-0.666666666666667,0,"saltshaker","left","left",403.243749635,1,0
"MWP503",2,244,"rabbit","valid",-0.5,-0.333333333333333,"nomask",-0.5,-0.666666666666667,0,"rabbit","left","left",316.543518566,1,0
"MWP503",2,245,"noise","noise",0,0.666666666666667,"after",0.5,0.333333333333333,0.5,"swan","right","right",395.428273361,1,0
"MWP503",2,246,"skunk","valid",-0.5,-0.333333333333333,"nomask",-0.5,-0.666666666666667,0,"skunk","right","right",384.032034548,1,0
"MWP503",2,247,"noise","noise",0,0.666666666666667,"during",0.5,0.333333333333333,-0.5,"tree","right","left",NA,0,1
"MWP503",2,248,"noise","noise",0,0.666666666666667,"nomask",-0.5,-0.666666666666667,0,"rabbit","right","right",393.415472703,1,0
"MWP503",2,249,"skunk","valid",-0.5,-0.333333333333333,"during",0.5,0.333333333333333,-0.5,"skunk","left","right",NA,0,1
"MWP503",2,250,"noise","noise",0,0.666666666666667,"nomask",-0.5,-0.666666666666667,0,"tomato","right","right",547.922450583,1,0
"MWP503",2,251,"noise","noise",0,0.666666666666667,"nomask",-0.5,-0.666666666666667,0,"rhinoceros","left","left",425.961707369,1,0
"MWP503",2,252,"noise","noise",0,0.666666666666667,"after",0.5,0.333333333333333,0.5,"wine_glass","right","right",430.389184505,1,0
"MWP503",2,253,"skunk","invalid",0.5,-0.333333333333333,"nomask",-0.5,-0.666666666666667,0,"rhinoceros","left","left",417.515852605,1,0
"MWP503",2,254,"piano","valid",-0.5,-0.333333333333333,"nomask",-0.5,-0.666666666666667,0,"piano","left","left",364.163706778,1,0
"MWP503",2,255,"wine_glass","valid",-0.5,-0.333333333333333,"during",0.5,0.333333333333333,-0.5,"wine_glass","left","left",349.425473483,1,0
"MWP503",2,256,"tree","invalid",0.5,-0.333333333333333,"during",0.5,0.333333333333333,-0.5,"skunk","right","right",617.100593634,1,0
"MWP503",2,257,"saltshaker","valid",-0.5,-0.333333333333333,"after",0.5,0.333333333333333,0.5,"saltshaker","right","right",408.111123019,1,0
"MWP503",2,258,"skunk","valid",-0.5,-0.333333333333333,"nomask",-0.5,-0.666666666666667,0,"skunk","left","left",487.630818738,1,0
"MWP503",2,259,"rhinoceros","invalid",0.5,-0.333333333333333,"nomask",-0.5,-0.666666666666667,0,"swan","left","left",405.04477662,1,0
"MWP503",2,260,"noise","noise",0,0.666666666666667,"nomask",-0.5,-0.666666666666667,0,"saltshaker","right","right",402.290577884,1,0
"MWP503",2,261,"noise","noise",0,0.666666666666667,"during",0.5,0.333333333333333,-0.5,"giraffe","right","right",399.804803194,1,0
"MWP503",2,262,"rabbit","invalid",0.5,-0.333333333333333,"nomask",-0.5,-0.666666666666667,0,"giraffe","right","right",900.632507633,1,0
"MWP503",2,263,"noise","noise",0,0.666666666666667,"nomask",-0.5,-0.666666666666667,0,"skunk","left","right",NA,0,1
"MWP503",2,264,"noise","noise",0,0.666666666666667,"nomask",-0.5,-0.666666666666667,0,"giraffe","right","right",431.823314517,1,0
"MWP503",2,265,"wine_glass","invalid",0.5,-0.333333333333333,"nomask",-0.5,-0.666666666666667,0,"skunk","left","left",515.827898285,1,0
"MWP503",2,266,"tree","valid",-0.5,-0.333333333333333,"nomask",-0.5,-0.666666666666667,0,"tree","left","left",334.929050179,1,0
"MWP503",2,267,"noise","noise",0,0.666666666666667,"after",0.5,0.333333333333333,0.5,"swan","right","right",532.441298477,1,0
"MWP503",2,268,"noise","noise",0,0.666666666666667,"during",0.5,0.333333333333333,-0.5,"skunk","left","left",434.049029602,1,0
"MWP503",2,269,"swan","valid",-0.5,-0.333333333333333,"after",0.5,0.333333333333333,0.5,"swan","right","right",418.933253619,1,0
"MWP503",2,270,"wine_glass","valid",-0.5,-0.333333333333333,"nomask",-0.5,-0.666666666666667,0,"wine_glass","right","right",383.539670147,1,0
"MWP503",2,271,"noise","noise",0,0.666666666666667,"after",0.5,0.333333333333333,0.5,"rabbit","right","right",429.049345199,1,0
"MWP503",2,272,"noise","noise",0,0.666666666666667,"after",0.5,0.333333333333333,0.5,"wine_glass","right","right",348.693200387,1,0
"MWP503",2,273,"saltshaker","valid",-0.5,-0.333333333333333,"after",0.5,0.333333333333333,0.5,"saltshaker","left","left",447.132994654,1,0
"MWP503",2,274,"noise","noise",0,0.666666666666667,"during",0.5,0.333333333333333,-0.5,"tree","left","left",541.599275544,1,0
"MWP503",2,275,"noise","noise",0,0.666666666666667,"after",0.5,0.333333333333333,0.5,"giraffe","right","right",394.26903089,1,0
"MWP503",2,276,"piano","valid",-0.5,-0.333333333333333,"after",0.5,0.333333333333333,0.5,"piano","right","right",315.374771017,1,0
"MWP503",2,277,"tomato","valid",-0.5,-0.333333333333333,"nomask",-0.5,-0.666666666666667,0,"tomato","right","right",343.233468942,1,0
"MWP503",2,278,"saltshaker","valid",-0.5,-0.333333333333333,"nomask",-0.5,-0.666666666666667,0,"saltshaker","left","left",370.637442684,1,0
"MWP503",2,279,"noise","noise",0,0.666666666666667,"during",0.5,0.333333333333333,-0.5,"rhinoceros","left","left",465.526130283,1,0
"MWP503",2,280,"giraffe","invalid",0.5,-0.333333333333333,"during",0.5,0.333333333333333,-0.5,"swan","right","right",479.548819363,1,0
"MWP503",2,281,"rhinoceros","valid",-0.5,-0.333333333333333,"nomask",-0.5,-0.666666666666667,0,"rhinoceros","right","right",336.619817885,1,0
"MWP503",2,282,"giraffe","invalid",0.5,-0.333333333333333,"during",0.5,0.333333333333333,-0.5,"tree","left","right",NA,0,1
"MWP503",2,283,"noise","noise",0,0.666666666666667,"nomask",-0.5,-0.666666666666667,0,"swan","left","left",423.147056135,1,0
"MWP503",2,284,"saltshaker","valid",-0.5,-0.333333333333333,"during",0.5,0.333333333333333,-0.5,"saltshaker","right","right",382.265225751,1,0
"MWP503",2,285,"noise","noise",0,0.666666666666667,"nomask",-0.5,-0.666666666666667,0,"wine_glass","left","left",394.471299602,1,0
"MWP503",2,286,"skunk","valid",-0.5,-0.333333333333333,"after",0.5,0.333333333333333,0.5,"skunk","right","right",476.353963953,1,0
"MWP503",2,287,"swan","valid",-0.5,-0.333333333333333,"after",0.5,0.333333333333333,0.5,"swan","left","left",420.403122786,1,0
"MWP503",2,288,"noise","noise",0,0.666666666666667,"during",0.5,0.333333333333333,-0.5,"tomato","right","right",435.248953872,1,0
"MWP503",2,289,"rabbit","valid",-0.5,-0.333333333333333,"after",0.5,0.333333333333333,0.5,"rabbit","right","right",360.69548456,1,0
"MWP503",2,290,"tomato","valid",-0.5,-0.333333333333333,"nomask",-0.5,-0.666666666666667,0,"tomato","left","left",446.363841649,1,0
"MWP503",2,291,"giraffe","valid",-0.5,-0.333333333333333,"nomask",-0.5,-0.666666666666667,0,"giraffe","right","right",314.631471992,1,0
"MWP503",2,292,"noise","noise",0,0.666666666666667,"after",0.5,0.333333333333333,0.5,"tomato","right","right",367.344494676,1,0
"MWP503",2,293,"noise","noise",0,0.666666666666667,"after",0.5,0.333333333333333,0.5,"skunk","left","left",412.990662968,1,0
"MWP503",2,294,"wine_glass","valid",-0.5,-0.333333333333333,"after",0.5,0.333333333333333,0.5,"wine_glass","left","left",405.885788263,1,0
"MWP503",2,295,"noise","noise",0,0.666666666666667,"nomask",-0.5,-0.666666666666667,0,"swan","left","left",452.10796583,1,0
"MWP503",2,296,"noise","noise",0,0.666666666666667,"nomask",-0.5,-0.666666666666667,0,"rhinoceros","left","left",410.072596162,1,0
"MWP503",2,297,"noise","noise",0,0.666666666666667,"during",0.5,0.333333333333333,-0.5,"rabbit","left","left",456.390204956,1,0
"MWP503",2,298,"noise","noise",0,0.666666666666667,"nomask",-0.5,-0.666666666666667,0,"wine_glass","left","left",381.861449103,1,0
"MWP503",2,299,"piano","valid",-0.5,-0.333333333333333,"nomask",-0.5,-0.666666666666667,0,"piano","right","right",458.021280821,1,0
"MWP503",2,300,"noise","noise",0,0.666666666666667,"during",0.5,0.333333333333333,-0.5,"saltshaker","left","left",409.025133704,1,0
"MWP503",2,301,"piano","valid",-0.5,-0.333333333333333,"nomask",-0.5,-0.666666666666667,0,"piano","right","right",336.847180035,1,0
"MWP503",2,302,"noise","noise",0,0.666666666666667,"nomask",-0.5,-0.666666666666667,0,"giraffe","left","left",398.953906377,1,0
"MWP503",2,303,"skunk","invalid",0.5,-0.333333333333333,"after",0.5,0.333333333333333,0.5,"rabbit","left","left",399.440567591,1,0
"MWP503",2,304,"giraffe","valid",-0.5,-0.333333333333333,"during",0.5,0.333333333333333,-0.5,"giraffe","right","right",348.395880777,1,0
"MWP503",2,305,"rabbit","valid",-0.5,-0.333333333333333,"nomask",-0.5,-0.666666666666667,0,"rabbit","right","right",366.401588311,1,0
"MWP503",2,306,"noise","noise",0,0.666666666666667,"nomask",-0.5,-0.666666666666667,0,"rhinoceros","right","right",379.541063216,1,0
"MWP503",2,307,"tomato","valid",-0.5,-0.333333333333333,"nomask",-0.5,-0.666666666666667,0,"tomato","left","left",417.141731828,1,0
"MWP503",2,308,"noise","noise",0,0.666666666666667,"nomask",-0.5,-0.666666666666667,0,"skunk","left","left",511.538435239,1,0
"MWP503",2,309,"giraffe","valid",-0.5,-0.333333333333333,"nomask",-0.5,-0.666666666666667,0,"giraffe","right","right",330.699279089,1,0
"MWP503",2,310,"noise","noise",0,0.666666666666667,"nomask",-0.5,-0.666666666666667,0,"rabbit","left","left",362.333404133,1,0
"MWP503",2,311,"noise","noise",0,0.666666666666667,"after",0.5,0.333333333333333,0.5,"tomato","left","left",415.815959917,1,0
"MWP503",2,312,"noise","noise",0,0.666666666666667,"nomask",-0.5,-0.666666666666667,0,"tree","right","right",383.458686643,1,0
"MWP503",2,313,"noise","noise",0,0.666666666666667,"nomask",-0.5,-0.666666666666667,0,"giraffe","left","left",350.174855907,1,0
"MWP503",2,314,"wine_glass","valid",-0.5,-0.333333333333333,"nomask",-0.5,-0.666666666666667,0,"wine_glass","left","left",415.844475268,1,0
